,timestamp,acc_x_dashboard,acc_y_dashboard,acc_z_dashboard,acc_x_above_suspension,acc_y_above_suspension,acc_z_above_suspension,acc_x_below_suspension,acc_y_below_suspension,acc_z_below_suspension,gyro_x_dashboard,gyro_y_dashboard,gyro_z_dashboard,gyro_x_above_suspension,gyro_y_above_suspension,gyro_z_above_suspension,gyro_x_below_suspension,gyro_y_below_suspension,gyro_z_below_suspension,mag_x_dashboard,mag_y_dashboard,mag_z_dashboard,mag_x_above_suspension,mag_y_above_suspension,mag_z_above_suspension,temp_dashboard,temp_above_suspension,temp_below_suspension,timestamp_gps,latitude,longitude,speed
12752,1577399132.92,0.6618215735458739,-0.0391247588367,8.619593137862042,1.6368747984351175,-1.0327768429639856,7.6390799652843935,0.7452974582579075,-0.4671612995426827,10.1131078125,0.7653585294397868,0.0491258574695121,1.1983731897865857,1.2733645555449695,2.955739091082317,2.0841272865853657,3.314320634051067,-7.147067930640244,-0.1276527963033537,0.5288862179487168,-14.110684294871795,0.4508817571317522,-15.599305041913214,-1.099783029470529,-35.89141087278106,29.218767783867968,33.939167939617214,35.616467487345375,1577399132.0,-27.704137384624865,-51.10939177086889,22.991013
12753,1577399132.93,0.2344565772079833,-0.3431883696765433,10.302716904951886,0.7498230833472272,0.2110109194871856,9.762736837842988,0.7189612399961888,-0.5078627277653389,9.196128576660156,-2.7594217439977133,0.4305955840320121,1.5035489710365857,0.5562014696074693,-2.934153487042683,0.8939417397103658,-0.5461529987614329,-1.913303282202744,-1.2110268197408538,0.9696247329059844,-13.394924946581195,0.526028716653711,-8.819613579529443,-24.19522664835164,-0.9351473346365176,29.09896067331596,34.08293647227963,35.66439033156618,1577399132.0,-27.704137384624865,-51.10939177086889,22.991013
12754,1577399132.94,0.193755148985327,0.4277445648937682,10.862960093428448,0.3200638853491803,-1.1955825558546107,10.847310189893772,0.4867236789610324,2.1592779216487226,9.5384994140625,-3.0340799471227133,-0.3018262909679878,1.0457852991615857,-3.5789303663300305,8.204762528582316,0.7413538490853658,7.708851884051067,-15.081638243140244,1.6423667349466462,1.4985109508547012,-15.644454326923077,0.6763226356976285,-1.4235865296562409,-25.11171250624375,-3.8850429918639056,29.146883517536764,34.03501362805883,35.52062179890376,1577399132.0,-27.704137384624865,-51.10939177086889,22.991013
12755,1577399132.95,0.1817841406845458,-0.5586665190906058,10.810287656905013,-0.6735298036156624,-0.4701394528272669,11.18010422065549,0.6495293918516575,-0.1439440754215889,10.077194787597657,-3.980124868997713,-2.712714962842988,0.8931974085365855,1.6700930711699695,-8.579905440167684,1.0770472084603655,5.481068680926067,-11.572116758765244,2.283235875571646,1.3222155448717956,-14.62194097222222,1.4277922309172282,-14.777524258593967,-28.960953109390605,-4.032537774725275,29.09896067331596,33.939167939617214,35.616467487345375,1577399132.0,-27.704137384624865,-51.10939177086889,22.991013
12756,1577399132.96,0.0608769568466556,-0.4162115203113089,10.728884800459698,0.3990725401343366,-0.2163540768507044,11.72358799751096,1.5305956027891574,0.4354527263362224,10.965443603515624,0.7958761075647867,-0.3323438690929878,1.3814786585365857,-1.4732174757050305,1.3383074504573171,1.9620569740853653,-2.087290694073933,7.318264100609756,2.863069859946646,1.0577724358974372,-15.54220299145299,0.1502939190439143,-14.777524258593967,-27.494575736763235,-4.032537774725275,29.146883517536764,34.03501362805883,35.66439033156618,1577399132.0,-27.704137384624865,-51.10939177086889,22.991013
12757,1577399132.97,0.3493782568954833,-0.216295681688262,10.156670603682354,0.7450346800269151,-0.0691106747510956,10.1889047333508,-0.7163626552674821,-0.2049962177555739,8.827421520996094,0.0787130216272865,0.8883592559070121,1.5035489710365857,-2.1293454053925305,0.7737322551448171,0.8023890053353657,-1.5990094440739329,-1.3182105087652438,3.351351109946646,0.7933293269230788,-15.235448985042735,0.3757347976097936,-13.133962691955478,-27.494575736763235,-4.032537774725275,29.09896067331596,33.7714379848444,35.59250606523497,1577399132.0,-27.704137384624865,-51.10939177086889,22.991013
12758,1577399132.98,0.5935868262314208,0.6120980927257994,9.881337412764385,-0.8842195497094124,0.1978428103563258,9.528105075147677,-0.3392758937928727,-0.9938856647770578,6.909665991210937,-1.1725076814977131,-2.102363400342988,0.8321622522865855,0.0221438524199695,-0.8589581745426829,1.5958460365853655,0.6287737590510671,4.937893006859756,1.6423667349466462,1.6748063568376068,-14.21293563034188,-0.3757347976097998,-13.133962691955478,-27.494575736763235,-4.032537774725275,29.09896067331596,33.747476562734,35.616467487345375,1577399132.0,-27.704137384624865,-51.10939177086889,22.991013
12759,1577399132.99,0.9287750586532958,-0.695136013719512,8.485517844893291,1.4166082457007427,-1.0902376828077356,7.052500558546112,0.2832165378477512,-2.887699177960651,10.36210478515625,0.6585470060022866,0.5831834746570121,1.5951017054115857,-2.2666745069550305,8.632008622332316,0.8634241615853658,2.429310868426067,9.576564881859756,-1.1042152963033538,-0.2644431089743548,-14.008432959401707,0.0751469595219524,-13.133962691955478,-23.46203796203796,-41.201223055790365,29.146883517536764,34.03501362805883,35.66439033156618,1577399132.0,-27.704137384624865,-51.10939177086889,22.991013
12760,1577399133.0,0.5911926245712645,-0.0008175322742,9.116389982344463,0.2051422056616803,0.3498746157762476,9.802241165235566,1.5880564426329074,-0.187039705304402,9.6917283203125,-1.5997537752477131,0.2627489043445119,1.2594083460365857,2.524585258669969,-1.8050030964176829,1.5195520912728655,1.6968889934260671,-5.163425352515244,-1.0736977181783538,1.14592013888889,-14.41743830128205,0.0751469595219556,-15.188414650253591,-15.763556755744254,-20.55195345519865,29.19480636175757,34.058975050169224,35.64042890945578,1577399133.0,-27.70392940073996,-51.10934688042602,23.594995
12761,1577399133.01,-0.0480592186904531,-0.0798261870593557,9.096039268233136,0.0351538877905866,-0.5180234860303919,10.653379855421116,-1.4406086574647476,1.2973653239924725,12.12423720703125,-1.3250955721227131,1.254570193407012,1.7171720179115857,1.2428469774199695,0.5753679973323171,1.1991175209603655,2.154652665301067,-2.905124571265244,-0.3717934213033537,1.4985109508547012,-14.008432959401707,-0.2254408785658824,-2.0399221171456747,-27.1279813936064,-1.6726212489433638,29.43442058286159,33.65163087429239,35.424776110462155,1577399133.0,-27.70392940073996,-51.10934688042602,23.594995
12762,1577399133.02,-0.1150968651748281,-0.7430200469226369,9.85978959782298,0.4948406065405866,-1.8156807858350796,11.769077829053929,0.4220802341368137,1.33088414723466,11.743559143066406,1.0857930997522869,2.1395799590320124,1.5645841272865857,-2.4497799757050305,2.742116044207317,0.7108362709603658,-9.564097334698932,-8.764499571265244,2.069612828696646,1.3222155448717956,-15.030946314102565,-0.0751469595219649,-14.98296945442378,-27.31127856518481,-1.525126466081995,28.955192140653548,33.939167939617214,35.80815886422859,1577399133.0,-27.70392940073996,-51.10934688042602,23.594995
12763,1577399133.03,-0.2072736290908438,-0.4437448394031058,11.38489605534251,0.2386610289038678,0.813152637016482,12.018074801710178,2.418844418707126,-0.5964481891911202,11.935095275878906,-0.7910379549352132,-2.636421017530488,1.1678556116615857,-4.372387397580031,7.014576981707317,1.4432581459603655,-7.916148115948933,-3.668064024390244,5.701204625571647,0.9696247329059844,-14.826443643162392,0.526028716653711,-13.133962691955478,-30.42733048201798,-2.852579511834319,29.12292209542636,33.891245095396414,35.52062179890376,1577399133.0,-27.70392940073996,-51.10934688042602,23.594995
12764,1577399133.04,-0.0408766137099844,-0.0941913970202932,9.797540354658915,-0.071388086086366,-0.6736465939405486,8.967861886671113,-0.0280296779725607,0.0787166789729417,9.20690248413086,-0.6231912752477134,0.3085252715320121,2.0528653772865857,1.2886233446074695,-2.461131026105184,1.6111048256478655,1.2238665324885671,2.374416444359756,4.556795445884147,0.6170339209401732,-14.21293563034188,0.526028716653711,-13.031240094040571,-25.93654977834665,-1.598873857512679,29.146883517536764,33.891245095396414,35.76023602000779,1577399133.0,-27.70392940073996,-51.10934688042602,23.594995
12765,1577399133.05,0.6223172461532958,-0.2857275298327933,7.386579282881573,1.2514083311499615,-0.9226435665967982,7.267978707960174,-2.146898147210841,-4.436747652081745,7.268796240234375,0.2007833341272865,1.681816287157012,2.2970060022865857,-2.4802975538300305,-0.7063702839176829,1.6263636147103655,-2.545054365948933,12.414699647484756,1.5202964224466462,0.6170339209401732,-14.21293563034188,0.526028716653711,-3.2725932921245406,-4.032537774725275,-37.07136913567202,29.09896067331596,33.939167939617214,35.52062179890376,1577399133.0,-27.70392940073996,-51.10934688042602,23.594995
12766,1577399133.06,0.5241549780868896,-0.647251980516387,9.24687397282298,-2.1890594544945685,0.7509033938524194,10.22960616157346,-0.7271365627381852,-1.1088073444645576,9.485826977539062,-2.6068338533727133,-4.086005978467988,1.3204435022865857,5.393237602419969,-10.929758955792684,1.1380823647103655,3.894154618426067,-6.170505430640244,-0.2192055306783537,1.4985109508547012,-16.053459668803416,0.3757347976097936,-16.215640629402646,-24.378523819930063,-36.92387435281065,29.146883517536764,33.84332225117561,35.616467487345375,1577399133.0,-27.70392940073996,-51.10934688042602,23.594995
12767,1577399133.07,0.2021348547958739,-0.0654609770984187,9.512630357100322,0.5163884214819928,-0.2833917233350794,8.050882650831268,-0.0328180812928727,0.0140732341487225,11.15937393798828,-0.7300027986852133,0.567924685594512,1.8850186975990857,-1.6258053663300305,5.549733231707317,2.6029261147103657,2.337758134051067,-6.750339415015244,-0.1886879525533537,0.4407385149572675,-15.439951655982906,0.0751469595219524,-16.421085825232456,-23.09544361888112,-36.77637956994928,29.12292209542636,33.699553718513194,35.66439033156618,1577399133.0,-27.70392940073996,-51.10934688042602,23.594995
12768,1577399133.08,0.4642999365829833,-0.043913162157012,8.700995994307354,0.9281911070288676,-0.7011799130323451,8.96905898750119,0.5429874179747048,-0.2923845783512764,7.444770062255859,-0.1959451814977134,3.604423709032013,1.8697599085365848,-1.747875678830031,1.0636492473323171,1.3822229897103655,-3.277476240948933,-1.5318335556402438,-1.3636147103658538,-0.4407385149572604,-14.21293563034188,1.127204392829393,-16.215640629402646,-24.378523819930063,-36.92387435281065,28.955192140653548,33.939167939617214,35.688351753676585,1577399133.0,-27.70392940073996,-51.10934688042602,23.594995
12769,1577399133.09,-0.4478908959365469,0.1811417938976744,10.28116909001048,-0.9919586244164436,0.6742889407274195,12.554375973585175,1.336665268316501,3.016402115984661,8.872911352539061,-2.2101053377477133,-1.644599728467988,1.1983731897865857,-1.2290768507050305,1.6129656535823171,0.9549768959603658,3.650013993426067,4.876857850609756,2.069612828696646,-0.4407385149572604,-14.21293563034188,1.127204392829393,-2.861702900464919,-24.56182099150849,1.867253539729502,29.09896067331596,33.939167939617214,35.76023602000779,1577399133.0,-27.70392940073996,-51.10934688042602,23.594995
12770,1577399133.1,-0.0504534203506094,-0.7502026519031058,10.597203709151104,-0.5538197206078499,-0.4150728146436732,10.093136666944552,1.181042160406345,1.8743679240901283,12.892775939941403,-1.6302713533727131,-4.024970822217988,1.7171720179115857,-0.2525143507050305,0.9415789348323172,2.2061975990853657,-7.092173506573933,21.50893792873476,3.076692906821646,0.6170339209401732,-15.848956997863246,0.2254408785658761,-14.366633866934349,-27.494575736763235,-4.032537774725275,29.09896067331596,33.747476562734,35.66439033156618,1577399133.0,-27.70392940073996,-51.10934688042602,23.594995
12771,1577399133.11,0.1865725440048588,-0.5814114348620901,10.40806177799876,1.3783010191382428,-0.5850611325147669,10.354104647901584,0.5441845188047825,-0.2229527302067452,14.544775085449215,-0.3943094393102132,1.3613817168445124,2.0223477991615857,-3.792553413205032,12.172047684832316,2.0230921303353657,-8.953745772198932,-4.980319883765244,3.076692906821646,0.7051816239316224,-15.95120833333333,-0.3005878380878411,-14.57207906276416,-26.944684222027973,-3.2950638604184275,29.09896067331596,33.747476562734,35.616467487345375,1577399133.0,-27.70392940073996,-51.10934688042602,23.594995
12772,1577399133.12,-0.2587489647842032,-0.6233099639148244,8.847042295576886,-0.5957182496605847,-0.0439715573194549,9.44789931953244,-0.6600989162538102,0.4222846172053631,9.70489642944336,1.1468282560022869,4.123222537157012,2.2054532679115857,-0.3745846632050305,-1.7287091511051829,1.3517054115853655,5.770985673113567,-22.344821836890244,5.441805211509147,1.4985109508547012,-14.826443643162394,-0.5260287166537173,-7.792387600380389,-15.030368069430567,-1.0826421174978864,29.338574894419985,33.98709078383802,35.83212028633899,1577399133.0,-27.70392940073996,-51.10934688042602,23.594995
12773,1577399133.13,-0.3808532494521719,0.4780227997570495,9.97471127751048,-0.6256457704125373,0.142776172172732,8.685346090772674,0.1228050266172825,1.4146812053401288,9.124302526855468,-1.1419901033727131,-1.827705197217988,1.5035489710365857,0.6630129930449695,2.742116044207317,2.4198206459603657,-2.941782881573933,-17.462009336890244,3.198763219321646,0.2644431089743619,-14.62194097222222,1.4277922309172282,-1.629031725486053,-2.5661604020979016,-40.90623349006763,29.09896067331596,33.891245095396414,35.76023602000779,1577399133.0,-27.70392940073996,-51.10934688042602,23.594995
12774,1577399133.14,0.0716508643173583,-0.4772636626452933,9.457563718916733,0.9162200987280866,-0.7119538205030482,9.113908187940645,-1.4142724392030288,-2.1143720417301823,10.022128149414062,0.1702657560022865,1.071464724657012,2.3275235804115857,-1.0154538038300305,15.315358231707316,1.2601526772103655,-5.383189131573933,-15.844577696265244,1.3066733755716462,0.2644431089743619,-14.62194097222222,1.4277922309172282,-15.599305041913214,-1.832971715784216,-36.1864004385038,29.146883517536764,33.84332225117561,35.76023602000779,1577399133.0,-27.70392940073996,-51.10934688042602,23.594995
12775,1577399133.15,0.1135493933700931,-0.417408621141387,9.23370586369212,0.9593157286108992,1.004688769828982,10.42114229438596,0.4963004856016574,-3.4575191730778387,8.125920434570313,-1.1877664705602131,0.5221483184070119,1.9460538538490857,-0.6797604444550305,-3.605540205792683,2.3282679115853657,-9.991343428448932,-31.164401915015244,-0.0055824838033536,1.0577724358974372,-14.110684294871792,0.7514695952195933,-16.421085825232456,-1.832971715784216,-36.1864004385038,29.146883517536764,33.891245095396414,35.616467487345375,1577399133.0,-27.70392940073996,-51.10934688042602,23.594995
12776,1577399133.16,-0.3616996361709219,-0.800480886766387,9.062520444990948,-0.6160689637719123,-0.9118696591260952,9.566412301710177,-0.142951357660061,0.4821396587092693,8.597578161621094,-1.3250955721227131,1.986992068407012,2.2970060022865857,0.6019778367949695,-0.5537823932926829,2.3740442787728657,-1.7363385456364329,-3.622287657202744,1.7796958365091462,0.6170339209401732,-14.21293563034188,-0.6763226356976347,-14.777524258593967,-13.93058503996004,-0.7876525517751474,29.19480636175757,33.96312936172762,35.736274597897385,1577399133.0,-27.70392940073996,-51.10934688042602,23.594995
12777,1577399133.17,-0.2563547631240469,-0.0558841704577933,9.627552036787824,-1.0757556825219123,-1.0974202877882044,12.04201681831174,1.863389633550876,2.5758690105159108,12.574347119140624,1.8487325528772869,1.773369021532012,2.3885587366615857,8.383960258669969,-28.17219059641768,3.2743128334603657,-2.575571944073933,-15.295261290015244,2.649446813071646,1.4985109508547012,-14.41743830128205,0.0751469595219524,-3.2725932921245406,-24.56182099150849,-4.032537774725275,29.29065205019917,33.939167939617214,35.52062179890376,1577399133.0,-27.70392940073996,-51.10934688042602,23.594995
12778,1577399133.18,-0.3760648461318594,-0.7861156768054495,12.562843272139386,-0.2928517396508187,-0.5395713009717982,12.116237069776584,-1.050353786859279,-0.967549446515339,11.245565197753905,-2.8814920564977133,-2.956855587842988,1.9613126429115848,-1.1985592725800305,-1.1030987995426829,1.4432581459603655,-1.2327985065739329,-4.614108946265244,4.846712438071647,1.4985109508547012,-14.41743830128205,0.0751469595219524,-3.2725932921245406,-30.06073613886113,-2.852579511834319,29.09896067331596,33.84332225117561,35.616467487345375,1577399133.0,-27.70392940073996,-51.10934688042602,23.594995
12779,1577399133.19,-0.8058240441299063,-0.1887623625964656,10.272789384199932,-0.8782340455590217,0.0386283999559356,9.917162844923066,-0.6469308071229514,-0.0302194965641675,11.38323179321289,0.7500997403772862,0.735771365282012,2.2817472132240857,-6.096630561642531,11.37859065358232,2.7249964272103657,-3.994639326886433,-16.180271055640244,4.923006383384147,1.6748063568376068,-14.41743830128205,0.0751469595219556,-3.2725932921245406,-28.96095310939061,-1.6726212489433638,29.12292209542636,33.91520651750682,35.71231317578699,1577399133.0,-27.70392940073996,-51.10934688042602,23.594995
12780,1577399133.2,-0.7399834984756094,-0.340794168016387,9.052943638350325,-1.0015354310570683,-0.4964756710889856,10.962231869581272,-0.322516482171779,-1.61158969309737,7.326257080078125,3.1304708341272867,5.313408084032012,3.2735685022865857,2.738208305544969,-8.305247237042684,2.5418909584603657,0.1710100871760671,-14.562839415015244,6.281038609946647,1.3222155448717956,-15.848956997863246,-0.0751469595219649,-3.2725932921245406,-24.19522664835165,-4.032537774725275,29.146883517536764,33.747476562734,35.616467487345375,1577399133.0,-27.70392940073996,-51.10934688042602,23.594995
12781,1577399133.21,-0.1055200585342031,0.0638259125500182,10.132728587080791,0.1907769957007428,-0.7789914669874232,8.89843003852658,0.6112221652891574,-3.4551249714176824,7.256825231933593,-0.6842264314977134,-5.001533322217988,2.1444181116615857,8.658618461794969,-3.575022627667683,1.9620569740853653,-7.855112959698933,-4.064792540015244,3.137728063071646,0.9696247329059844,-14.62194097222222,0.8266165547415459,-13.133962691955478,-4.032537774725275,-41.79120218723584,29.29065205019917,33.939167939617214,35.616467487345375,1577399133.0,-27.70392940073996,-51.10934688042602,23.594995
12782,1577399133.22,-0.4766213158584219,-0.5203592925281058,10.309899509932354,-0.8746427430687874,0.5210600344774196,9.53049927680783,1.5401724094297824,1.4218638103205974,8.552088330078124,1.0247579435022869,0.6137010527820121,3.2735685022865857,-3.2127194288300305,4.512135575457317,2.7860315834603657,-5.230601240948933,4.998928163109756,0.0859702505716463,0.9696247329059844,-14.62194097222222,0.8266165547415459,-16.421085825232456,-0.7331886863136862,-37.07136913567202,29.09896067331596,33.84332225117561,35.52062179890376,1577399133.0,-27.70392940073996,-51.10934688042602,23.594995
12783,1577399133.23,-0.2024852257705313,-0.1576377410144339,8.453196122481183,-0.2772894288598035,-0.3624003781202357,9.48022104194455,-0.2650556423280295,-0.0852861347477613,11.141417425537108,-0.9588846346227134,-0.8053663300304881,3.0599454554115857,1.2123293992949695,-2.964671065167683,3.0454309975228657,-2.316172530011433,-1.2266577743902438,0.9099448599466462,0.705181623931626,-14.315186965811964,0.6011756761756698,-15.599305041913214,-13.01409918206793,-20.40445867233728,29.24272920597837,33.891245095396414,35.688351753676585,1577399133.0,-27.70392940073996,-51.10934688042602,23.594995
12784,1577399133.24,-1.2667078637099842,0.0566433075695494,11.562066978194071,-1.3247526551781623,-1.2171303707960168,12.231158749464084,0.7333264499571263,2.518408170672161,12.46181964111328,1.1773458341272869,-2.926338009717988,3.1514981897865857,1.8837161180449693,-10.197337080792684,2.2367151772103657,0.5982561809260671,2.801662538109756,3.320833531821646,0.0881477029914492,-14.41743830128205,0.3757347976097936,-3.2725932921245406,-2.9327547452547447,-0.1976734203296699,29.09896067331596,34.08293647227963,35.76023602000779,1577399133.0,-27.70392940073996,-51.10934688042602,23.594995
12785,1577399133.25,-0.2515663598037344,-0.7932982817859182,11.435174290205792,-0.1899010682640999,-0.6185799557569545,11.484167831495334,-1.1533044582459977,1.0387915446955975,12.871228125,-2.1795877596227133,-2.987373165967988,2.6632169397865857,2.524585258669969,-5.009348799542683,2.4503382240853657,5.114857743426067,-16.088718321265244,7.013460484946647,0.7933293269230788,-14.008432959401707,0.3757347976097936,-16.421085825232456,-24.92841533466533,-2.852579511834319,29.19480636175757,33.891245095396414,35.616467487345375,1577399133.0,-27.70392940073996,-51.10934688042602,23.594995
12786,1577399133.26,-0.7016762719131094,0.0123505768566593,10.44636900456126,-0.8890079530297249,-0.0559425656202357,11.201652035596895,-0.7031945461366227,0.2463107951838787,10.450690246582033,0.6890645841272867,-1.949775509717988,3.1209806116615857,1.8837161180449693,-2.079661299542683,4.067769864710366,-2.026255537823933,-4.919284727515244,6.342073766196647,0.7933293269230788,-14.008432959401707,0.3757347976097936,-14.777524258593967,-30.42733048201798,-2.5575899461115803,29.12292209542636,34.03501362805883,35.66439033156618,1577399133.0,-27.70392940073996,-51.10934688042602,23.594995
12787,1577399133.27,-0.5987256005263907,-0.5562723174304496,11.140687486006572,-0.0917388001976941,-0.5168263852003139,9.681333981397676,-1.2263276088807633,-0.4863149128239327,8.58680425415039,0.7806173185022866,-2.743232540967988,3.1820157679115857,2.310962211794969,-1.9118146198551835,2.4350794350228657,0.2778216106135671,-8.413547422827744,5.258699742759147,1.3222155448717956,-13.394924946581195,0.2254408785658761,-10.874065537827557,-25.111712506243755,-3.4425586432797965,29.19480636175757,33.891245095396414,35.64042890945578,1577399133.0,-27.70392940073996,-51.10934688042602,23.594995
12788,1577399133.28,-0.4191604760146719,-0.0463073638171683,10.171035813643291,-0.5418487123070687,0.4540223879930445,9.997368600538303,-1.749460671624904,-0.4671612995426827,7.41244833984375,0.3533712247522865,-1.553046994092988,2.9073575647865857,2.829761039919969,-10.014231612042684,3.9151819740853657,3.314320634051067,-6.109470274390244,2.832552281821646,1.8511017628205124,-14.41743830128205,0.0751469595219524,-1.834476921315863,-1.2830802010489508,-40.46374914148351,29.19480636175757,33.891245095396414,35.66439033156618,1577399133.0,-27.70392940073996,-51.10934688042602,23.594995
12789,1577399133.29,0.1219290991806395,-0.6424635771960745,9.026607420088606,-0.2784865296898811,-0.0104527340772669,9.93511935737424,-2.541941421136624,-3.6442669025700254,8.78432589111328,1.2994161466272869,0.3390428496570121,3.2125333460365857,-2.6023678663300305,5.885426591082317,2.8165491615853657,7.769887040301067,-20.757907774390244,1.0625327505716462,0.0881477029914492,-15.235448985042735,1.2774983118733108,-13.133962691955478,-23.828632305194805,-41.79120218723584,29.338574894419985,33.891245095396414,35.616467487345375,1577399133.0,-27.70392940073996,-51.10934688042602,23.594995
12790,1577399133.3,-0.5855574913955313,-0.5095853850574026,9.50185644962962,0.3416117002905866,-1.324869445503048,10.085954061964085,1.307934848394626,-1.8773460773747137,8.303091357421874,-0.0433572908727133,-0.0882032440929878,3.3498624475990857,1.7311282274199695,0.7584734660823171,3.4269007240853657,1.6053362590510671,-12.853855040015244,0.2690757193216463,0.2644431089743619,-13.394924946581195,0.8266165547415459,-13.133962691955478,-23.828632305194805,-41.79120218723584,29.09896067331596,33.699553718513194,35.616467487345375,1577399133.0,-27.70392940073996,-51.10934688042602,23.594995
12791,1577399133.31,-1.1924876122451409,0.549848849561737,11.07843824284251,-0.5250893006859754,-0.3468380673292205,10.364878555372284,0.6591061984922825,0.94781188160966,11.261127508544922,1.1163106778772869,0.7357713652820121,3.1209806116615857,2.402514946169969,-11.28071110423018,3.4269007240853657,-0.0273541706364328,-1.6386450790777438,2.695223180259146,0.9696247329059844,-14.21293563034188,0.8266165547415459,-13.647575681530007,-24.836766748876123,-39.35753827002325,29.19480636175757,33.93916793961722,35.56854464312457,1577399133.0,-27.70392940073996,-51.10934688042602,23.594995
12792,1577399133.32,-1.0488355126357656,-0.2617855132312308,10.98267017643626,-1.4995293763695683,-1.2434665890577357,11.714011190870334,0.8410655246641575,0.4139049113948162,11.52329259033203,-3.5833963533727133,-4.421699337842988,2.7242520960365857,-0.8628659132050305,2.986256669207317,1.5348108803353655,-2.453501631573933,-5.987399961890244,4.663606969321647,0.4407385149572675,-14.826443643162394,2.179261826136821,-3.067148096294731,-25.84490119255744,-3.8850429918639056,28.955192140653548,34.08293647227963,35.616467487345375,1577399133.0,-27.70392940073996,-51.10934688042602,23.594995
12793,1577399133.33,-0.5867545922256094,-0.982440212938262,11.284339585615948,0.2961218687476178,-0.1349512204053919,11.022086911085175,-1.742278066644435,-2.846997749737995,9.631873278808593,2.0318380216272867,0.0338670684070121,3.6397794397865857,-0.6797604444550305,7.167164872332317,3.7931116615853657,-0.1952008503239328,3.381496522484756,5.487581578696647,1.14592013888889,-14.008432959401707,0.3757347976097936,-16.421085825232456,-26.02819836413586,-1.6726212489433638,29.09896067331596,33.747476562734,35.616467487345375,1577399133.0,-27.70392940073996,-51.10934688042602,23.594995
12794,1577399133.34,-0.7866704308486563,-0.1588348418445125,10.72768769962962,-0.2820778321801155,-0.6365364682081264,9.25756028755002,0.5358048129942357,1.113011796160441,9.776722479248049,-0.6231912752477132,-2.682197384717988,2.9531339319740857,5.988330375857469,1.6129656535823171,2.6792200600228657,1.6663714153010671,3.366237733422256,4.938265172446647,1.6748063568376068,-13.394924946581195,1.4277922309172282,-13.133962691955478,-15.763556755744254,-2.4100951632502112,29.24272920597837,33.7714379848444,35.616467487345375,1577399133.0,-27.70392940073996,-51.10934688042602,23.594995
12795,1577399133.35,0.1315059058212645,0.2218432221203307,8.329894736983135,-0.0103359437523811,-0.5491481076124232,8.089189877393768,-0.0854905178163102,-2.368157417706745,8.86094034423828,4.503761849752286,1.590263552782012,3.8839200647865857,-1.1070065382050305,7.075612137957317,2.6334436928353657,2.063099930926067,0.2687035537347561,2.802034703696646,1.3222155448717956,-14.21293563034188,-0.3757347976097998,-12.312181908636234,-4.032537774725275,-1.3776316832206257,29.09896067331596,34.03501362805883,35.616467487345375,1577399133.0,-27.70392940073996,-51.10934688042602,23.594995
12796,1577399133.36,-0.4095836693740469,0.2074780121593932,10.137516990401105,-1.360665680080506,-0.1181918087842981,8.86730541694455,-0.1166151393983414,-0.7161582721989328,9.311050256347656,-0.6537088533727134,-3.475654415967988,3.1820157679115857,2.585620414919969,-10.716135908917684,4.037252286585366,-3.796275069073933,4.754787538109756,-0.0361000619283536,0.2644431089743619,-14.21293563034188,-0.0751469595219649,-12.928517496125668,-3.48264625999001,-37.51385348425613,29.146883517536764,34.08293647227963,35.66439033156618,1577399133.0,-27.70392940073996,-51.10934688042602,23.594995
12797,1577399133.37,-0.3545170311904532,-0.4928259734363089,10.02618661320384,-0.8794311463890999,-1.1860057492139855,9.619084738233612,1.4587695529844698,2.113788090105753,12.342109558105468,-0.2569803377477132,-0.3170850800304881,2.9226163538490857,4.447192680544969,-5.406077315167683,2.1756800209603657,-1.3243512409489329,4.846340272484756,-6.994107874428353,-0.2644431089743548,-13.803930288461537,1.1272043928293871,-14.777524258593967,-2.5661604020979016,-40.61124392434488,29.12292209542636,33.939167939617214,35.616467487345375,1577399133.0,-27.70392940073996,-51.10934688042602,23.594995
12798,1577399133.38,0.0189784277939208,-0.2665739165515433,8.803946665694072,0.5534985472144147,-0.1289657162550018,9.055250247266816,-0.2746324489686539,-0.3546338215153395,9.782707983398437,1.6045919278772869,0.1254198027820121,2.9683927210365857,0.2662844774199695,-2.003367354230183,3.3200892006478657,-0.1189069050114328,6.692653749047256,1.6881431021341462,0.2644431089743619,-14.21293563034188,0.8266165547415459,-8.614168383699633,-24.92841533466533,-1.672621248943364,29.09896067331596,33.91520651750682,35.71231317578699,1577399133.0,-27.70392940073996,-51.10934688042602,23.594995
12799,1577399133.39,-0.4239488793349844,0.3463417084484557,9.3498246442097,-1.6503640809594122,-0.8867305416944544,10.569582797315649,-1.3879362209413102,-1.0226160846989327,12.995726611328124,2.6727071622522867,1.651298709032012,3.0904630335365857,6.400317680544969,-7.237132002667683,1.3517054115853655,4.473988602801067,-6.384128477515244,3.534456578696646,1.14592013888889,-13.599427617521366,-0.8266165547415584,-3.2725932921245406,-25.295009677822176,-4.032537774725275,29.19480636175757,34.03501362805883,35.66439033156618,1577399133.0,-27.70392940073996,-51.10934688042602,23.594995
12800,1577399133.4,-0.5987256005263907,-0.5155708892077933,11.030554209639384,-0.8698543397484748,-0.8292697018507045,8.994198104932831,1.2169551853086886,1.4865072551448162,10.955866796875,-1.2640604158727131,-1.705634884717988,2.6326993616615857,2.585620414919969,3.169362137957317,2.0536097084603657,0.6592913371760671,-3.637546446265244,3.229280797446646,0.7933293269230788,-14.008432959401707,-0.8266165547415584,-14.57207906276416,-26.57808987887113,-3.5900534261411665,29.146883517536764,34.03501362805883,35.32893042202055,1577399133.0,-27.70392940073996,-51.10934688042602,23.594995
12801,1577399133.41,-0.3389547203994376,-0.0917971953601375,11.25800336735423,-1.169129547268006,-0.6688581906202358,9.997368600538303,2.131540219488376,2.1999793498713784,10.900800158691403,-0.0433572908727134,-1.995551876905488,2.8158048304115857,2.494067680544969,-10.166819502667684,4.189840177210366,7.190053055926067,-13.525241758765244,5.609651891196647,1.14592013888889,-13.803930288461537,-0.2254408785658823,-14.57207906276416,-26.57808987887113,-3.5900534261411665,29.19480636175757,34.08293647227963,35.616467487345375,1577399133.0,-27.70392940073996,-51.10934688042602,23.594995
12802,1577399133.42,-0.4431024926162344,-0.5826085356921683,9.275604392744857,-0.1120895143090222,-0.1840323544385955,10.306220614698455,-0.7343191677186545,-0.4252627704899488,9.822212310791016,-1.0199197908727131,1.681816287157012,3.6397794397865857,-4.036694038205031,0.7737322551448171,2.2214563881478657,-0.1952008503239329,-3.408664610327744,3.351351109946646,1.3222155448717956,-14.21293563034188,-0.3757347976097998,-4.813432260848125,-14.572125140484513,-1.893863423235418,29.19480636175757,33.84332225117561,35.59250606523497,1577399133.0,-27.70392940073996,-51.10934688042602,23.594995
12803,1577399133.43,-0.5101401391006094,0.1548055756359557,10.415244382979228,-0.4436864442406624,-1.0878434811475794,8.884064828565643,-1.0575363918397478,-0.1750686970036202,11.84890401611328,-1.5997537752477131,-3.475654415967988,2.9683927210365857,-2.1140866163300305,5.519215653582317,2.0230921303353657,2.887074540301067,7.135158631859756,2.802034703696646,2.7325787927350405,-13.803930288461538,-0.0751469595219649,1.8635366036207368,-2.3828632305194803,-2.115105597527472,29.19480636175757,33.65163087429239,35.66439033156618,1577399133.0,-27.70392940073996,-51.10934688042602,23.594995
12804,1577399133.44,-0.9003950097060781,0.0422780976086119,10.810287656905013,-0.9728050111351936,0.2026312136766383,9.305444320753145,-1.308927566156154,-2.562087752179401,13.587094421386718,-1.4471658846227131,-2.407539181592988,2.6937345179115857,0.6630129930449695,-0.4317120807926829,3.4574183022103657,-0.8971051471989329,-12.884372618140244,0.8183921255716463,1.6748063568376068,-13.803930288461538,0.2254408785658761,-16.421085825232456,-4.032537774725275,-40.61124392434488,29.09896067331596,33.84332225117561,35.52062179890376,1577399133.0,-27.70392940073996,-51.10934688042602,23.594995
12805,1577399133.45,-0.2767054772353751,-0.4856433684558401,8.953584269453838,-0.1037098084984749,-0.4318322262647669,10.188904733350803,-0.6840409328553727,-0.661091634015339,9.124302526855468,0.2465597013147865,0.827324099657012,3.1514981897865857,3.073901664919969,-6.779368330792683,2.8775843178353657,-3.063853194073933,-0.3416480087652439,-0.0666176400533536,0.705181623931626,-14.110684294871795,0.4508817571317523,-16.421085825232456,-4.032537774725275,-36.77637956994928,29.12292209542636,33.891245095396414,35.616467487345375,1577399133.0,-27.70392940073996,-51.10934688042602,23.594995
12806,1577399133.46,-0.993768874452172,0.0015766693859557,10.848594883467513,-0.3299618653832405,-0.9046870541456264,9.247983480909394,-0.2171716091249044,-0.4252627704899488,8.620323077392577,-1.3250955721227131,-0.2713087128429878,2.9989102991615857,2.494067680544969,-10.99079411204268,2.1146448647103657,-1.5837506550114329,-4.431003477515244,2.969881383384146,0.7933293269230788,-13.190422275641025,0.6763226356976285,-8.511445785784726,-21.17082331730769,-1.4513790746513104,28.955192140653548,33.93916793961722,35.52062179890376,1577399133.0,-27.70392940073996,-51.10934688042602,23.594995
12807,1577399133.47,-0.9123660180068596,-0.2139014800281058,10.980275974776104,-1.695853912502381,0.3941673464891382,12.116237069776584,0.99908283423447,2.0946344768245035,8.365340600585936,-0.7147440096227134,-1.430976681592988,3.3346036585365857,0.8156008836699695,-2.842600752667683,3.7320765053353657,-6.359751631573933,19.46426019435976,3.534456578696646,0.9696247329059844,-14.62194097222222,1.7283800690050692,-2.861702900464919,-25.66160402097902,-3.4425586432797965,29.19480636175757,34.03501362805883,35.76023602000779,1577399133.0,-27.70392940073996,-51.10934688042602,23.594995
12808,1577399133.48,-0.2300185448623282,-0.2210840850085745,10.08245035221751,-1.0589962709008187,-1.1764289425733607,9.542470285108612,-3.377517800531155,-4.527727315167683,11.08275948486328,0.9942403653772866,-2.224433712842988,2.8768399866615857,7.804126274294969,-8.091624190167684,2.6944788490853657,-5.078013350323933,19.40322503810976,3.900667516196646,2.379987980769229,-15.439951655982904,2.329555745180739,-14.777524258593967,-27.494575736763235,-2.2626003803888417,28.955192140653548,33.747476562734,35.66439033156618,1577399133.0,-27.70392940073996,-51.10934688042602,23.594995
12809,1577399133.49,-0.4790155175185782,-0.1336957244128719,9.713743296553448,-0.3981966126976936,-0.3815539914014857,10.077574356153535,0.5046801914122048,0.5120671794612225,10.530896002197265,-0.0128397127477133,0.3543016387195121,3.3193448694740857,1.960010063357469,-5.726511885480183,2.9233606850228657,-3.704722334698933,14.962917420922258,3.641268102134146,1.6748063568376068,-14.826443643162394,-0.075146959521965,-7.176052012890953,-27.494575736763235,-2.852579511834319,29.218767783867968,33.963129361727624,35.736274597897385,1577399133.0,-27.70392940073996,-51.10934688042602,23.594995
12810,1577399133.5,-0.5699951806045157,0.0039708710461119,9.064914646651106,-0.6663471986351936,-0.1134034054639857,9.37727037055783,-1.3951188259217788,-1.3003434772770577,7.714117749023437,0.4449239591272865,1.590263552782012,3.6092618616615857,-4.463940131955031,2.345387528582317,2.6639612709603657,0.3235979778010671,6.768947694359756,3.931185094321646,1.4985109508547012,-14.826443643162394,0.0751469595219524,1.6580914077909268,-2.5661604020979016,-38.25132739856297,29.146883517536764,33.939167939617214,35.32893042202055,1577399133.0,-27.70392940073996,-51.10934688042602,23.594995
12811,1577399133.51,-0.7351950951552969,-0.015182742235137,8.775216245772198,-1.6264220643578498,-0.3600061764600794,9.64542095649533,-1.7279128566834976,0.306165836687785,9.60793126220703,1.1163106778772869,-2.102363400342988,3.3651212366615857,2.188891899294969,-9.953196455792684,4.098287442835366,0.6898089153010671,-0.982517149390244,1.7644370474466462,1.4985109508547012,-14.826443643162394,0.0751469595219524,0.0145298411524369,-2.9327547452547447,-37.661348267117496,29.19480636175757,33.84332225117561,35.616467487345375,1577399133.0,-27.70392940073996,-51.10934688042602,23.594995
12812,1577399133.52,-0.7519545067763906,-0.0953884978503719,9.59882161686595,-0.3527067811547249,-0.958556591499142,8.52254037788205,-1.098237820062404,0.172090543719035,8.566453540039062,-0.2722391268102133,-0.866401486280488,3.3956388147865857,-4.738598335080031,4.054371903582317,2.4808558022103657,-1.9041852253239329,0.909572694359756,1.0930503286966462,1.14592013888889,-14.41743830128205,-0.3757347976097998,-1.629031725486053,-2.5661604020979016,-40.02126479289941,29.170844939647168,33.891245095396414,35.52062179890376,1577399133.0,-27.70392940073996,-51.10934688042602,23.594995
12813,1577399133.53,-0.7160414818740469,-0.1468638335437307,8.064138352705791,-0.4496719483910535,0.1403819705125758,9.104331381300018,-0.1226006435487326,0.3528527690608324,8.086416107177733,-2.6983865877477133,-2.071845822217988,3.3651212366615857,-1.747875678830031,-3.330882002667683,2.6029261147103657,0.1252337199885671,0.9706078506097562,3.015657750571646,0.4407385149572675,-13.599427617521366,0.3757347976097936,-1.6290317254860518,-2.3828632305194803,-39.13629609573119,29.09896067331596,33.7235151406236,35.64042890945578,1577399133.0,-27.70392940073996,-51.10934688042602,23.594995
12814,1577399133.54,-1.7216061791396715,0.4133793549328307,8.935627757002667,-0.8698543397484748,-0.6640697872999232,10.284672799757052,-2.094225710687404,-1.3218912922184638,10.091559997558592,-1.4471658846227131,-4.116523556592988,3.7923673304115857,0.3578372117949695,-10.014231612042684,3.0606897865853657,1.7579241496760671,-12.731784727515244,3.778597203696646,0.6170339209401732,-12.576914262820512,0.8266165547415459,-2.656257704635109,-25.4783068494006,-3.8850429918639056,29.146883517536764,33.747476562734,35.616467487345375,1577399133.0,-27.70392940073996,-51.10934688042602,23.594995
12815,1577399133.55,-1.4726092064834218,-0.321640554735137,10.788739841963604,-0.9057673646508186,-0.1972004635694544,10.840127584913304,1.506653586187595,1.80972447926591,12.777854260253903,-4.285300650247714,-6.802070431592988,3.0599454554115857,1.3343997117949695,-10.044749190167684,1.8094690834603653,-8.404429365948932,-6.963962461890244,4.053255406821647,0.6170339209401732,-12.576914262820512,0.8266165547415459,-3.067148096294731,-26.944684222027973,-3.8850429918639056,29.146883517536764,33.84332225117561,35.66439033156618,1577399133.0,-27.70392940073996,-51.10934688042602,23.594995
12816,1577399133.56,-0.8285689599013907,-0.1049653044909969,10.38292266056712,-0.4484748475609749,-0.1684700436475794,11.567964889600802,2.03337795142197,3.15766001393388,8.32463917236328,-3.461326040872714,-5.321967892530488,3.5177091272865857,-0.2830319288300305,-3.361399580792683,3.3353479897103657,2.307240555926067,-20.696872618140244,7.410189000571647,0.5288862179487204,-13.906181623931625,0.6011756761756698,-15.599305041913214,-36.292839972527474,-2.852579511834319,29.09896067331596,33.747476562734,35.76023602000779,1577399133.0,-27.70392940073996,-51.10934688042602,23.594995
12817,1577399133.57,-0.9027892113662344,-0.2115072783679495,9.440804307295636,-0.3646777894555061,-0.7394871395948451,9.270728396680877,-1.8224838222596695,0.5012932719905193,10.727220538330078,1.2994161466272869,-1.400459103467988,3.9449552210365857,-0.4661373975800305,-5.955393721417683,3.4269007240853657,-7.870371748761432,-10.259860899390244,5.670687047446647,1.14592013888889,-13.599427617521366,0.0751469595219524,-1.834476921315864,-3.299349088411588,-3.4425586432797965,29.09896067331596,33.7953994069548,35.64042890945578,1577399133.0,-27.70392940073996,-51.10934688042602,23.594995
12818,1577399133.58,-1.0560181176162344,0.0542491059093932,10.961122361494857,-0.7573268617211312,0.3869847415086695,10.45226691596799,1.1116103122618135,1.54157389332841,7.984662536621093,-4.193747915872714,-7.229316525342988,3.5177091272865857,-4.647045600705031,1.4908953410823171,2.6639612709603657,-1.0496930378239329,-11.083835508765244,4.572054234946647,1.4985109508547012,-14.41743830128205,0.6763226356976285,-15.599305041913214,-3.665943431568431,-39.13629609573119,29.146883517536764,33.699553718513194,35.76023602000779,1577399133.0,-27.70392940073996,-51.10934688042602,23.594995
12819,1577399133.59,-0.4024010643935782,-0.4509274443835745,10.321870518233135,-0.8507007264672248,-0.843634911811642,9.082783566358613,0.5992511569883762,0.1505427287776287,8.688557824707031,-1.904929556497713,-4.177558712842988,3.6397794397865857,1.4869876024199695,-7.786448408917683,2.7555140053353657,0.9034319621760672,-13.708347227515244,3.656526891196646,1.4985109508547012,-14.41743830128205,0.6763226356976285,-13.133962691955478,-3.665943431568431,-37.07136913567202,29.19480636175757,33.891245095396414,35.66439033156618,1577399133.0,-27.70392940073996,-51.10934688042602,23.594995
12820,1577399133.6,-0.8261747582412344,-0.522753494188262,7.520654575850323,-0.631631274562928,-0.562316216743283,9.1929168427258,-1.0096523586366226,0.6557192790705975,11.294646331787108,-0.8062967439977133,-0.790107540967988,4.021249166349086,-1.7478756788300305,-8.412058760480184,3.6710413490853657,-3.521616865948933,-9.039157774390244,2.206941930259146,0.9696247329059844,-12.985919604700854,0.0751469595219556,-16.31836322731755,-13.105747767857142,-18.855763452292894,29.146883517536764,34.01105220594842,35.95192739689101,1577399133.0,-27.70392940073996,-51.10934688042602,23.594995
12821,1577399133.61,-1.5731656762099842,0.3535243134289245,8.55734389469798,-1.8323234071312875,-0.5898495358350794,10.811397164991428,0.8865553562071262,-0.8071379352848702,10.070012182617187,-0.4095682283727134,-5.184638790967988,3.8839200647865857,-3.914623725705032,1.7655535442073171,1.2296350990853655,-4.864390303448933,-11.114353086890244,3.687044469321646,0.2644431089743619,-14.62194097222222,0.2254408785658761,-3.067148096294731,-3.48264625999001,-3.5900534261411665,28.907269296432744,33.747476562734,35.32893042202055,1577399133.0,-27.70392940073996,-51.10934688042602,23.594995
12822,1577399133.62,-1.3074092919326403,-0.1708058501452933,10.489464634444072,-0.9560455995140998,-1.2243129757764857,9.341357345655489,0.3478599826719699,-0.594053987530964,10.172962854003906,-4.437888540872714,-10.738838009717988,3.3651212366615857,-2.2971920850800305,1.9486590129573167,3.0606897865853657,-2.789194990948933,-11.541599180640244,5.243440953696647,-0.0881477029914563,-14.21293563034188,-0.0751469595219649,-14.57207906276416,-27.31127856518481,-38.69381174714708,29.146883517536764,33.939167939617214,36.28738730643664,1577399133.0,-27.70392940073996,-51.10934688042602,23.594995
12823,1577399133.63,-0.6298502221084219,-0.9656808013171682,11.18617731754954,-0.900978961330506,-0.5922437374952356,10.86646380317502,-0.188441189203029,-0.5389873493473702,11.05881746826172,-1.874411978372713,-7.015693478467988,3.8839200647865857,3.9894290086699695,-14.530833174542684,3.4879358803353657,-4.650767256573933,-8.672946836890244,6.921907750571647,-0.0881477029914563,-14.21293563034188,-0.0751469595219649,-12.928517496125668,-28.777655937812185,-40.16875957576077,29.146883517536764,33.939167939617214,35.616467487345375,1577399133.0,-27.70392940073996,-51.10934688042602,23.594995
12824,1577399133.64,-1.2212180321670154,-0.3228376555652151,10.590021104170637,-1.5653699220238655,-0.5611191159132045,11.005327499464082,-0.0639427028749044,-1.0465581013004952,10.734403143310546,-0.5468973299352133,-3.506171994092988,3.8381436975990857,0.0984377977324695,-5.329783369855184,2.5571497475228657,0.0794573528010671,-11.556857969702744,4.449983922446647,1.14592013888889,-14.826443643162392,0.0751469595219556,-12.928517496125668,-27.31127856518481,-39.28379087859256,29.146883517536764,33.891245095396414,35.736274597897385,1577399133.0,-27.70392940073996,-51.10934688042602,23.594995
12825,1577399133.65,-0.6202734154677969,-0.9082199614734182,8.794369859053448,-0.7238080384789436,-2.138898009956173,5.843428720167206,-0.3392758937928727,-0.6467264240544015,10.172962854003906,-0.5316385408727134,-5.093086056592988,4.128060689786586,0.9376711961699696,-5.955393721417683,2.8775843178353657,0.1099749309260671,-16.027683165015244,4.572054234946647,1.14592013888889,-14.826443643162394,0.0751469595219524,0.0145298411524369,-4.032537774725275,-39.431285661453934,29.09896067331596,34.03501362805883,35.66439033156618,1577399133.0,-27.70392940073996,-51.10934688042602,23.594995
12826,1577399133.66,-0.3736706444717032,-0.0798261870593557,9.665859263350324,-2.603256341701601,-0.3193047482374231,10.72041750190549,-2.158869155511623,-2.042545991925495,11.238382592773435,-0.3485330721227134,-7.717597775342988,3.5177091272865857,2.249927055544969,-13.065989424542684,4.006734708460366,-1.4159039753239329,-9.435886290015244,2.649446813071646,1.4985109508547012,-13.190422275641025,0.0751469595219524,-16.010195433572836,-21.629066246253743,-41.79120218723584,29.146883517536764,33.939167939617214,35.66439033156618,1577399133.0,-27.70392940073996,-51.10934688042602,23.594995
12827,1577399133.67,-0.3090271996474844,-0.8603359282702931,9.3498246442097,-1.1739179505883186,-0.9513739865186732,9.063629953077362,-1.46455067406631,-0.4695555012028389,7.726088757324218,1.4214864591272869,-4.116523556592988,4.036507955411586,6.339282524294969,-12.547190596417684,3.5794886147103657,-4.315073897198933,0.5738793349847561,1.6728843130716462,1.4985109508547012,-13.190422275641025,0.0751469595219524,-14.777524258593967,-23.09544361888112,-41.79120218723584,29.146883517536764,33.747476562734,35.616467487345375,1577399133.0,-27.70392940073996,-51.10934688042602,23.594995
12828,1577399133.68,-0.2372011498427974,-0.0642638762683406,10.118363377119854,1.0526895933569933,-0.4078902096632049,10.251153976514862,0.0318253635313455,-0.2349237385075269,9.87727894897461,-1.9507059236852136,-5.825507931592988,3.6702970179115857,1.9447512742949693,-4.841502119855184,2.3282679115853657,-4.482920576886433,-17.233127500952744,3.854891149009146,1.234067841880343,-14.519689636752137,0.6011756761756697,-16.215640629402646,-15.030368069430567,-19.8144795408918,29.07499925120556,33.91520651750682,35.616467487345375,1577399133.0,-27.70392940073996,-51.10934688042602,23.594995
12829,1577399133.69,-0.9913746727920156,0.1835359955578307,10.35778354313548,-2.394960797268006,0.0254602908250758,11.745135812452364,-0.6026380764100602,2.2837764079768474,10.498574279785156,-1.5082010408727131,-4.757392697217988,3.4261563929115857,2.768725883669969,-6.596262862042683,2.7860315834603657,-0.7445172565739329,-15.142673399390244,5.182405797446647,1.14592013888889,-12.781416933760685,0.0751469595219524,-2.861702900464919,-4.032537774725275,-3.737548209002536,29.09896067331596,33.891245095396414,36.28738730643664,1577399133.0,-27.70392940073996,-51.10934688042602,23.594995
12830,1577399133.7,-0.8812413964248281,-0.1755942534656058,9.63712884342845,-1.0901208924828498,-1.466127343452267,10.665350863721896,-1.1916116848084977,-1.0657117145817452,10.931924780273436,-2.2711404939977133,-5.917060665967988,3.5482267054115857,-1.5647702100800305,-1.3472394245426829,2.9996546303353657,-0.5919293659489329,-10.626071836890244,6.616731969321647,0.6170339209401732,-15.030946314102565,0.2254408785658761,-15.393859846083402,-33.1767880556943,-2.70508472897295,29.146883517536764,33.699553718513194,35.616467487345375,1577399133.0,-27.70392940073996,-51.10934688042602,23.594995
12831,1577399133.71,-1.762307607362328,-1.0375068511218557,10.745644212080792,-1.964004498439881,-1.2793796139600797,9.635844149854703,0.2281498996641575,-1.391323140362995,11.176133349609374,-0.8062967439977134,-3.841865353467988,4.250131002286586,3.470630180544969,-12.516673018292684,3.1827600990853657,-0.8971051471989329,-0.7078589462652439,3.564974156821646,1.14592013888889,-12.781416933760685,0.0751469595219524,-3.2725932921245406,-27.494575736763235,-4.032537774725275,29.29065205019917,34.03501362805883,35.616467487345375,1577399133.0,-27.70392940073996,-51.10934688042602,23.594995
12832,1577399133.72,-1.07158042840725,-0.7370345427722463,10.915632529951884,-1.446856939846131,-0.6784349972608611,10.181722128370332,-0.4757453884217795,1.1369538127620036,10.615890161132812,-0.4706033846227134,-8.724677853467988,3.8228849085365857,-1.3969235303925305,-1.8355206745426835,2.5418909584603657,-0.8208112018864329,-5.377048399390244,6.097933141196647,1.9392494658119648,-13.701678952991452,-6.251943407420413e-15,-8.20327799204001,-26.57808987887113,-2.85257951183432,29.12292209542636,33.7953994069548,35.64042890945578,1577399133.0,-27.70392940073996,-51.10934688042602,23.594995
12833,1577399133.73,-0.5843603905654532,0.0111534760265807,10.719307993819072,-0.7381732484398811,-0.0200295407178919,10.39480607612424,-3.085425197992092,-3.0720527057926823,10.326191760253906,1.7876973966272869,-6.069648556592988,3.8228849085365857,0.3273196336699695,-11.265452315167684,2.6334436928353657,-2.972300459698933,-8.611911680640244,3.351351109946646,1.8511017628205124,-13.599427617521366,-0.2254408785658824,0.6308654286418709,-2.0162688873626373,-41.64370740437448,29.09896067331596,34.08293647227963,35.52062179890376,1577399133.0,-27.70392940073996,-51.10934688042602,23.594995
12834,1577399133.74,-0.6801284569717032,-0.264179714891387,10.125545982100324,0.2530262388648053,-1.2889564206007045,9.631055746534392,0.7045960300352513,2.9349992595393486,8.169016064453125,-1.843894400247713,-6.100166134717988,3.6397794397865857,5.057544243044969,-7.450755049542683,1.9315393959603653,-1.5074567096989329,-12.731784727515244,0.6352866568216463,0.9696247329059844,-14.21293563034188,0.2254408785658761,-2.861702900464919,-4.032537774725275,-41.79120218723584,29.09896067331596,33.747476562734,35.66439033156618,1577399133.0,-27.70392940073996,-51.10934688042602,23.594995
12835,1577399133.75,0.0153871253036869,-0.9094170623034964,9.499462247969465,0.8180578306616804,-1.315292638862423,9.0396879364758,0.3406773776915012,0.1960325603205975,9.983820922851562,-1.3861307283727131,-8.083808712842988,3.5024503382240857,1.7921633836699695,-6.718333174542683,2.9081018959603657,0.8423968059260671,-8.337253477515244,2.802034703696646,1.14592013888889,-14.008432959401707,-0.5260287166537173,-2.656257704635109,-3.849240603146853,-41.64370740437448,29.24272920597837,33.939167939617214,35.424776110462155,1577399133.0,-27.70392940073996,-51.10934688042602,23.594995
12836,1577399133.76,-0.7232240868545157,0.7246255707531432,9.306729014326889,-0.3108082521019905,0.2612891543504664,10.583948007276584,-0.4003280361268576,-1.7935490192692451,11.643002673339844,3.0694356778772867,-3.384101681592988,3.4566739710365857,0.8766360399199695,-2.9799298542301838,2.7555140053353657,-3.460581709698933,-0.2806128525152439,2.359529820884146,2.203692574786324,-13.599427617521366,0.0751469595219524,-8.203277992040011,-3.849240603146853,-22.764375198119197,29.146883517536764,33.91520651750682,35.56854464312457,1577399133.0,-27.70392940073996,-51.10934688042602,23.594995
12837,1577399133.77,-0.9626442528701408,-0.1229218169421682,9.550937583662824,0.0016350645483991,-1.2051593624952357,8.666192477491425,-0.3153338771913102,-1.4439955768864323,8.56166513671875,0.1092305997522865,-4.360664181592988,4.677377096036586,-1.2290768507050305,1.5214129192073171,2.8470667397103657,0.4456682903010671,-3.942722227515244,5.426546422446647,1.3222155448717956,-12.576914262820512,1.7283800690050692,-3.2725932921245406,-26.02819836413586,-2.2626003803888417,29.29065205019917,33.699553718513194,35.616467487345375,1577399133.0,-27.70392940073996,-51.10934688042602,23.594995
12838,1577399133.78,-0.7447719017959219,-0.7669620635241995,11.3801076520222,-2.6271983583031635,-0.0367889523389857,11.57035909126096,-1.493281093988185,0.3229252483088787,9.275137231445312,0.9637227872522866,-6.344306759717988,3.9754727991615857,3.440112602419969,-6.077464033917683,3.1522425209603657,-1.9041852253239329,-0.4026831650152439,5.579134313071647,1.8511017628205124,-14.41743830128205,-0.2254408785658824,-16.421085825232456,-27.494575736763235,-2.852579511834319,29.146883517536764,33.699553718513194,35.66439033156618,1577399133.0,-27.70392940073996,-51.10934688042602,23.594995
12839,1577399133.79,-0.8656790856338126,-0.1935507659167781,10.351798038985088,-1.1643411439476936,-0.0415773556592982,11.682886569288302,1.0517552707579074,2.501648759051067,12.404358801269533,0.7195821622522867,-4.971015744092988,3.9907315882240857,1.8226809617949693,2.925221512957317,3.1522425209603657,0.9644671184260672,-4.492038633765244,6.036897984946647,1.4985109508547012,-13.599427617521366,0.6763226356976285,-12.312181908636234,-2.9327547452547447,-2.2626003803888417,29.12292209542636,34.03501362805883,35.616467487345375,1577399133.0,-27.70392940073996,-51.10934688042602,23.594995
12840,1577399133.8,-0.6585806420302969,0.0542491059093932,9.380949265791733,-0.4137589234887093,-0.2774062191846893,10.051238137891817,-1.322095675287014,-1.4787115009586982,10.461464154052734,1.8182149747522869,-4.543769650342988,4.768929830411586,-2.007275092892531,-1.9118146198551829,3.3658655678353657,-0.2714947956364328,-5.468601133765244,4.816194859946647,0.9696247329059844,-13.803930288461538,-0.0751469595219649,-5.737935642082276,-2.566160402097902,-1.3776316832206252,29.4823434270824,33.819360829065204,35.784197442118185,1577399133.0,-27.70392940073996,-51.10934688042602,23.594995
12841,1577399133.81,-0.6154850121474844,-0.3743129912585745,9.48868834049876,-0.5226950990258187,-0.2642381100538294,8.57281861274533,0.2401209079649387,-1.7791838093083077,8.724470849609375,1.6351095060022869,-7.992255978467988,4.005990377286586,0.2662844774199695,2.040211747332317,1.2601526772103655,-7.000620772198933,10.064846131859756,2.252718297446646,1.14592013888889,-14.008432959401707,0.0751469595219524,-13.133962691955478,-3.299349088411588,-40.02126479289941,29.146883517536764,33.699553718513194,35.52062179890376,1577399133.0,-27.70392940073996,-51.10934688042602,23.594995
12842,1577399133.82,-0.0432708153701406,-0.6807708037585745,8.610016331221416,0.4038609434546491,-1.8731416256788291,7.191364254835174,0.6399525852110325,-0.661091634015339,12.562376110839844,1.3909688810022869,-8.022773556592988,3.7008145960365857,3.195971977419969,-4.032786299542683,4.525533536585366,-7.610972334698933,10.034328553734756,1.0014975943216462,1.14592013888889,-12.372411591880342,-0.5260287166537173,-15.393859846083402,2.016268887362638,-40.758738707206255,29.146883517536764,33.891245095396414,35.66439033156618,1577399133.0,-27.70392940073996,-51.10934688042602,23.594995
12843,1577399133.83,-0.214456234071313,-0.3048811431140433,8.671068473555401,-0.7728891725121473,0.6228136050340601,11.356078042676977,0.0677383884336892,0.1110384013850511,9.91438907470703,1.1773458341272869,-3.521430783155488,4.662118306974086,-2.846508491330031,3.8407488567073167,3.3353479897103657,-1.7210797565739329,-10.397190000952744,2.908846227134146,1.3222155448717956,-12.985919604700852,0.526028716653711,-8.614168383699631,-14.297179383116882,-0.9351473346365172,29.146883517536764,33.891245095396414,35.66439033156618,1577399133.0,-27.70392940073996,-51.10934688042602,23.594995
12844,1577399133.84,-0.9147602196670156,0.5977328827648619,11.727266892744854,-0.3311589662133186,-0.9106725582960168,8.929554660108613,0.261668722906345,0.8472554118830975,7.383717919921874,0.3228536466272865,-7.473457150342988,4.128060689786586,2.585620414919969,-1.3777570026676829,3.4879358803353657,6.213490555926067,-15.814060118140244,5.792757359946647,1.3222155448717956,-12.985919604700852,0.526028716653711,-0.8072509421668069,-1.099783029470529,1.2772744082840235,28.907269296432744,33.939167939617214,35.616467487345375,1577399133.0,-27.70392940073996,-51.10934688042602,23.594995
12845,1577399133.85,-0.3569112328506094,-0.1995362700671683,12.297086887862042,-0.5083298890648812,-1.1237565060499233,7.993421810987519,-1.0168349636170917,-0.4743439045231514,11.001356628417968,-3.827536978372713,-8.450019650342988,3.3346036585365857,6.430835258669969,-16.850169112042682,3.5794886147103657,3.009144852801067,4.937893006859756,6.250521031821647,0.4407385149572675,-12.372411591880342,0.6763226356976285,-1.4235865296562409,-3.849240603146853,-3.8850429918639056,29.146883517536764,33.747476562734,35.66439033156618,1577399133.0,-27.70392940073996,-51.10934688042602,23.594995
12846,1577399133.86,-0.2719170739150626,-0.3276260588855276,9.39411737492259,-1.7940161805687873,0.4276861697313258,11.017298507764863,-1.0192291652772476,-0.7401002888004953,10.912771166992188,-0.1501688143102134,-3.063667111280488,4.585824361661586,-3.3042721632050305,0.209157059832317,5.166402677210366,-5.291636397198933,6.341701600609756,3.809114781821646,1.4985109508547012,-13.803930288461538,0.8266165547415459,-1.629031725486053,-4.032537774725275,-3.4425586432797965,29.09896067331596,33.939167939617214,35.424776110462155,1577399133.0,-27.70392940073996,-51.10934688042602,23.594995
12847,1577399133.87,-1.051229714295922,-0.1851710601062308,10.226102451826886,-1.0075209352074592,-0.6317480648878139,8.3118506317883,0.0234456577207986,0.7455018413264568,9.746794958496093,2.1233907560022867,-1.339423947217988,4.829964986661586,4.752368461794969,-8.061106612042684,2.6944788490853657,0.8271380168635671,1.1537133193597562,5.197664586509147,1.3222155448717956,-13.803930288461538,0.8266165547415459,-2.0399221171456747,-1.099783029470529,-1.6726212489433638,29.09896067331596,34.01105220594842,35.59250606523497,1577399133.0,-27.70392940073996,-51.10934688042602,23.594995
12848,1577399133.88,-0.4407082909560781,0.2218432221203307,9.75683892643626,-1.035054254299256,0.4348687747117945,10.658168258741428,-1.1485160549256852,-2.3920994343083075,9.753977563476562,0.2313009122522865,-5.337226681592988,4.646859517911586,2.524585258669969,-16.880686690167682,4.800191739710366,-2.911265303448933,-0.7994116806402439,3.015657750571646,1.3222155448717956,-13.803930288461538,0.8266165547415459,0.0145298411524369,-1.832971715784216,-36.77637956994928,28.955192140653548,33.84332225117561,35.616467487345375,1577399133.0,-27.70392940073996,-51.10934688042602,23.594995
12849,1577399133.89,-0.0480592186904531,-0.3192463530749808,8.030619529463605,-1.01350643935785,-0.3600061764600794,10.205664144971896,-1.2969565578553728,-0.5174395344059639,8.973467822265624,3.832375131002287,-3.933418087842988,4.402718892911586,2.463550102419969,-11.295969893292684,3.9151819740853657,-1.8126324909489329,4.113918397484756,1.4897788443216462,0.4407385149572675,-14.008432959401707,0.3757347976097936,-16.421085825232456,-22.36225493256743,-41.79120218723584,29.19480636175757,33.747476562734,35.66439033156618,1577399133.0,-27.70392940073996,-51.10934688042602,23.594995
12850,1577399133.9,-0.5604183739638907,-0.2845304290027156,9.561711491133526,1.4046372373999614,-1.1381217160108608,8.491415756300018,0.0653441867735325,-1.161479780987995,7.888894470214844,-0.8062967439977134,-4.345405392530488,4.631600728849086,4.172534477419969,-14.103587080792684,2.9996546303353657,-3.246958662823933,-0.6773413681402439,3.473421422446646,1.8511017628205124,-12.576914262820512,0.9769104737854696,-12.106736712806422,-20.71258038836164,-3.8850429918639056,29.146883517536764,33.891245095396414,35.66439033156618,1577399133.0,-27.70392940073996,-51.10934688042602,23.594995
12851,1577399133.91,-0.6178792138076407,0.6192806977062681,9.723320103194077,-0.6783182069359754,-0.0655193722608612,11.323756320264865,-0.2339310207459982,0.1301920146663011,9.82460651245117,-3.1866678377477133,-8.877265744092988,4.158578267911586,1.8684573289824693,-16.575510908917682,4.311910489710366,-0.8360699909489329,-3.454440977515244,4.800936070884147,0.4407385149572675,-11.554400908119655,0.6763226356976285,-8.614168383699633,-26.21149553571428,-1.2301369003592555,29.146883517536764,33.74747656273399,35.56854464312457,1577399133.0,-27.70392940073996,-51.10934688042602,23.594995
12852,1577399133.92,-0.8716645897842031,-0.4509274443835745,10.149487998701886,-1.8634480287133184,-0.6880118039014858,9.932725155714085,-0.063942702874904,2.28856481129716,10.809820495605468,0.3838888028772865,-5.947578244092988,4.860482564786586,-4.433422553830031,-2.232249190167683,3.4879358803353657,-2.850230147198933,7.714992616234756,6.250521031821647,0.4407385149572675,-11.554400908119655,0.6763226356976285,-3.067148096294731,-25.11171250624375,-1.2301369003592555,29.19480636175757,33.747476562734,35.52062179890376,1577399133.0,-27.70392940073996,-51.10934688042602,23.594995
12853,1577399133.93,-0.5173227440810781,-1.001593826219512,11.43038588688548,1.7110950498999613,-1.4158491085889855,9.3461457489758,-0.2004121975038102,-1.0202218830387766,10.402806213378906,-0.2874979158727134,-3.445136837842988,4.891000142911586,0.7850833055449695,-6.840403487042683,3.9151819740853657,-5.718882490948933,11.193996522484756,6.006380406821647,1.14592013888889,-12.781416933760685,0.3757347976097936,-14.777524258593967,-27.1279813936064,-4.032537774725275,29.09896067331596,33.699553718513194,35.66439033156618,1577399133.0,-27.70392940073996,-51.10934688042602,23.594995
12854,1577399133.94,-0.2838880822158438,-0.2988956389636531,10.889296311690169,-0.2641213197289436,0.5330310427782008,10.38283506782346,0.874584347906345,-1.3362565021794013,9.765948571777344,-2.1643289705602133,-5.688178830030488,4.585824361661586,1.0597415086699695,-14.500315596417684,3.6100061928353657,-1.8431500690739329,5.883937928734756,5.151888219321647,0.705181623931626,-13.70167895299145,-0.3005878380878411,-13.133962691955478,-4.032537774725275,-0.1976734203296699,29.146883517536764,34.08293647227963,35.616467487345375,1577399133.0,-27.70392940073996,-51.10934688042602,23.594995
12855,1577399133.95,-0.0193287987685781,0.2816982636242369,10.355389341475323,0.1464842649878527,0.2517123477098414,8.65063016670041,-0.8779712673280295,0.3336991557795824,10.028113653564452,-1.0199197908727131,-7.015693478467988,4.341683736661586,0.4799075242949695,-2.430613447980183,4.418722013147866,0.6898089153010671,-1.4707983993902438,5.045076695884147,0.9696247329059844,-13.803930288461538,0.2254408785658761,-7.176052012890953,-2.5661604020979016,-18.04454214655537,29.146883517536764,33.91520651750682,35.616467487345375,1577399133.0,-27.70392940073996,-51.10934688042602,23.594995
12856,1577399133.96,0.2919174170517333,-0.2426318999499808,10.056114133955791,0.2817566587866803,-0.5802727291944544,9.686122384717986,-0.8181162258241227,-2.693768843487995,8.544905725097657,0.7195821622522866,-1.736152462842988,4.799447408536586,-0.9239010694550304,-1.6218976276676829,3.2743128334603657,-3.216441084698933,5.059963319359756,1.0014975943216462,0.9696247329059844,-13.803930288461538,0.2254408785658761,-11.490401125316987,-4.032537774725275,-37.07136913567202,29.146883517536764,33.84332225117561,35.66439033156618,1577399133.0,-27.70392940073996,-51.10934688042602,23.594995
12857,1577399133.97,0.1219290991806395,-0.9417387847156056,8.71536120426829,0.2602088438452741,-0.6592813839796107,9.123484994581268,0.3215237644102512,0.210397770281535,10.69968721923828,0.1397481778772865,2.0175096465320124,4.585824361661586,0.6630129930449695,-4.307444502667683,3.4879358803353657,1.9410296184260671,-6.139987852515244,2.893587438071646,1.3222155448717956,-14.21293563034188,-0.3757347976097998,-11.490401125316987,-4.032537774725275,-37.07136913567202,29.19480636175757,34.03501362805883,35.66439033156618,1577399133.0,-27.70392940073996,-51.10934688042602,23.594995
12858,1577399133.98,-0.5328850548720938,-0.2522087065906058,9.226523258711651,-0.7692978700219124,-0.4976727719190643,9.164186422803926,-1.5950346645448257,0.7167714214045818,11.671733093261718,-0.3027567049352134,-1.018989376905488,4.677377096036586,1.7158694383574693,-11.738474776105182,4.144063810022866,-3.796275069073933,-4.507297422827744,3.412386266196646,0.9696247329059808,-13.190422275641025,0.8266165547415459,-8.100555394125104,-3.940889188936064,-20.183216498045223,29.09896067331596,33.86728367328601,35.233084733578934,1577399133.0,-27.70392940073996,-51.10934688042602,23.594995
12859,1577399133.99,-0.8094153466201407,0.0063650727062682,9.59163901188548,-0.1396228334008186,-0.3647945797803919,10.390017672803928,-0.3488527004334977,0.3660208781916912,10.251971508789062,-0.4095682283727134,-3.750312619092988,4.524789205411586,-2.4192623975800305,-0.4011945026676829,4.586568692835366,-3.063853194073933,-9.313815977515244,4.968782750571647,1.6748063568376068,-13.394924946581195,-0.0751469595219649,-2.861702900464919,-26.02819836413586,-3.4425586432797965,29.09896067331596,34.17878216072124,34.993470512474914,1577399133.0,-27.70392940073996,-51.10934688042602,23.594995
12860,1577399134.0,-1.0057398827529531,0.1045273407726744,12.967463352705792,0.2745740538062116,-0.5491481076124232,11.809779257276585,-1.443002859124904,-1.42005356028487,11.621454858398437,-3.3392557283727133,-6.680000119092988,3.8228849085365857,0.5714602586699695,0.6364031535823171,3.0606897865853657,-8.221323897198932,4.297023866234756,6.525179234946647,1.6748063568376068,-13.394924946581195,-0.0751469595219649,-2.861702900464919,-26.02819836413586,-3.4425586432797965,29.146883517536764,33.939167939617214,35.76023602000779,1577399134.0,-27.703713484249977,-51.10930849418905,24.034063
12861,1577399134.01,-0.8189921532607657,-0.3036840422839656,11.304690299727277,-2.270462310939881,0.7006251589891382,11.71640539253049,0.29039914282822,0.9334466716487224,10.886434948730468,-1.2793192049352131,-3.170478634717988,4.662118306974086,-4.830151069455031,2.864186356707317,4.281392911585366,-4.498179365948933,-6.017917540015244,7.471224156821647,1.2340678418803428,-13.497176282051282,0.6011756761756729,-13.133962691955478,-27.494575736763235,-4.032537774725275,29.24272920597837,33.891245095396414,36.23946446221584,1577399134.0,-27.703713484249977,-51.10930849418905,24.034063
12862,1577399134.02,-0.5484473656631095,-0.6735881987781057,9.613186826826889,0.2302813230933214,-1.3081100338819545,9.853716500928924,-0.4937019008729514,-1.6427143146794012,9.919177478027343,-3.705466665872713,-4.665839962842988,4.891000142911586,-2.3582272413300305,3.444020341082317,4.327169278772866,-1.9652203815739329,-5.285495665015244,5.548616734946647,0.2644431089743619,-12.576914262820512,-0.3757347976097998,-6.148826033741899,-12.097613324175825,-19.961974323753168,28.955192140653548,33.939167939617214,35.8800431305598,1577399134.0,-27.703713484249977,-51.10930849418905,24.034063
12863,1577399134.03,0.1913609473251708,0.6408285126476744,10.149487998701886,-1.3750308900414436,0.9999003665086696,9.813015072706271,-0.5691192531678727,-1.1638739826481517,7.553706237792968,2.7642598966272867,-4.574287228467988,3.8228849085365857,-2.3277096632050305,-9.037669112042684,4.372945645960366,-1.7515973346989329,4.083400819359756,3.412386266196646,1.6748063568376068,-12.985919604700852,0.2254408785658761,-16.215640629402646,-24.378523819930063,-41.053728272929,29.338574894419985,33.939167939617214,35.32893042202055,1577399134.0,-27.703713484249977,-51.10930849418905,24.034063
12864,1577399134.04,0.0524972510361083,-0.4150144194812308,9.87176060612376,0.0375480894507428,-1.6337214596632044,6.860964425733612,-1.2299189113709976,0.9358408733088788,9.255983618164064,-0.2874979158727134,-5.276191525342988,4.372201314786586,-1.6258053663300305,1.7045183879573171,3.8236292397103657,0.5982561809260671,-2.081149961890244,2.252718297446646,1.6748063568376068,-12.985919604700852,0.2254408785658761,-16.421085825232456,-21.629066246253743,-40.61124392434488,29.146883517536764,33.891245095396414,35.76023602000779,1577399134.0,-27.703713484249977,-51.10930849418905,24.034063
12865,1577399134.05,0.4547231299423583,-0.4281825286120906,10.108786570479229,0.7653853941382428,-0.4222554196241419,9.52331667182736,-1.7925563015077164,-1.6044070881169012,8.36294639892578,1.1315694669397869,-0.805366330030488,4.662118306974086,-6.996899116330031,6.190602372332317,4.800191739710366,7.922474930926067,-2.905124571265244,3.503939000571646,1.6748063568376068,-11.96340625,0.3757347976097935,-15.393859846083402,-3.849240603146853,-36.92387435281065,29.12292209542636,33.939167939617214,35.52062179890376,1577399134.0,-27.703713484249977,-51.10930849418905,24.034063
12866,1577399134.06,-0.0193287987685781,0.0231244843273619,11.803881345869854,-0.1444112367211316,-0.0667164730909393,10.261927883985567,1.0170393466856418,-0.0409934040348707,9.355342987060546,-3.797019400247713,-1.278388790967988,4.250131002286586,2.417773735232469,-12.943919112042684,3.4879358803353657,-0.2257184284489328,3.320461366234756,3.351351109946646,0.9696247329059844,-12.167908920940173,0.8266165547415459,-8.819613579529445,-14.297179383116882,-3.147569077557058,29.09896067331596,33.98709078383802,35.71231317578699,1577399134.0,-27.703713484249977,-51.10930849418905,24.034063
12867,1577399134.07,-0.9195486229873282,0.0973447357922057,10.546925474287823,-0.8985847596703499,0.0446139041063258,9.5759891083508,-0.1860469875428727,1.314124735613566,10.603919152832033,-1.5387186189977131,1.163017459032012,4.250131002286586,1.4869876024199695,-6.169016768292683,5.471578458460366,7.586781571551067,-1.7149390243902438,5.701204625571647,2.556283386752135,-14.008432959401707,0.3757347976097936,-3.2725932921245406,-3.299349088411588,-3.147569077557058,29.43442058286159,33.891245095396414,35.616467487345375,1577399134.0,-27.703713484249977,-51.10930849418905,24.034063
12868,1577399134.08,-0.6106966088271719,-0.4700810576648245,9.673041868330792,-1.6144510560570686,-0.2929685299757044,13.117013363721895,-0.8564234523866227,0.4953077678401287,10.98220301513672,-0.2264627596227134,0.7662889434070121,4.952035299161586,0.1136965867949695,-0.7063702839176829,3.7320765053353657,-3.491099287823933,8.050685975609756,6.433626500571647,2.556283386752135,-14.008432959401707,0.3757347976097936,-3.2725932921245406,-3.299349088411588,-3.147569077557058,29.146883517536764,33.891245095396414,35.616467487345375,1577399134.0,-27.703713484249977,-51.10930849418905,24.034063
12869,1577399134.09,-0.2324127465224844,-0.3994521086902151,9.63593174259837,0.1333161558569933,-1.1297420102003135,8.609928738477754,0.65431779517197,0.7012091106135667,8.869320050048827,3.389870248189786,-2.727973751905488,4.265389791349086,2.539844047732469,-1.3930157917301829,4.357686856897866,0.3235979778010671,3.762966249047256,6.052156774009147,1.4985109508547012,-12.985919604700854,-0.0751469595219618,-3.2725932921245406,-4.032537774725275,-1.3776316832206257,28.931230718543148,33.7714379848444,35.59250606523497,1577399134.0,-27.703713484249977,-51.10930849418905,24.034063
12870,1577399134.1,-0.3209982079482656,0.3247938935070494,9.922038840987042,-1.638393072658631,0.8562482668992945,8.917583651807831,-1.8164983181092789,-2.2125343097965886,11.317391247558591,-0.1043924471227134,-0.0576856659679878,4.524789205411586,6.797046196169969,-15.171702315167684,3.5794886147103657,-1.9041852253239329,0.177150819359756,4.297396031821647,0.7933293269230788,-11.554400908119655,0.6763226356976285,-12.312181908636234,-4.032537774725275,-41.79120218723584,29.19480636175757,33.84332225117561,35.616467487345375,1577399134.0,-27.703713484249977,-51.10930849418905,24.034063
12871,1577399134.11,0.0046132178329833,-0.283333328172637,8.372990366865949,-0.3263705628930061,-0.4653510495069544,10.193693136671117,-1.6680578151795915,-2.241264729718464,9.744400756835937,-0.0128397127477134,0.2169725371570121,4.585824361661586,-2.3277096632050305,-6.107981612042683,5.044332364710366,3.558461259051067,1.5504418349847562,1.0625327505716462,0.9696247329059844,-11.349898237179486,-0.3757347976097998,-14.777524258593967,-1.099783029470529,-36.48139000422654,29.19480636175757,33.891245095396414,35.66439033156618,1577399134.0,-27.703713484249977,-51.10930849418905,24.034063
12872,1577399134.12,0.3709260718368896,-0.3479767729968558,9.404891282393292,0.4589275816382429,-1.3392346554639856,8.424378109815644,1.7987461887266574,-1.7312997761051825,10.965443603515624,2.4590841153772867,0.8578416777820121,4.616341939786586,4.843921196169969,-8.701975752667684,3.8541468178353657,1.1170550090510671,8.600002381859756,0.9709800161966464,0.9696247329059844,-11.349898237179486,-0.3757347976097998,-14.57207906276416,-3.849240603146853,-36.33389522136517,29.29065205019917,33.84332225117561,35.66439033156618,1577399134.0,-27.703713484249977,-51.10930849418905,24.034063
12873,1577399134.13,0.1674189307236083,-0.082220388719512,9.613186826826883,0.613353588718321,-0.1361483212354706,9.413183395460177,0.0749209934141579,-0.0685267231266675,10.293870037841796,1.0094991544397869,0.2474901152820119,4.143319478849086,1.1360354539824693,-0.0197247761051837,4.479757169397866,1.9257708293635671,3.671413514672256,3.137728063071646,0.9696247329059844,-12.985919604700854,-0.0751469595219618,-14.674801660679064,-14.755422312062937,-1.598873857512679,29.09896067331596,33.819360829065204,35.688351753676585,1577399134.0,-27.703713484249977,-51.10930849418905,24.034063
12874,1577399134.14,0.0141900244736083,-0.216295681688262,8.825494480635479,0.0423364927710553,-0.738290038764767,9.963849777296115,-0.6505221096131852,0.4905193645198162,10.63504377441406,-0.5926736971227134,1.315605349657012,4.372201314786586,2.188891899294969,-2.903635908917683,4.952779630335366,-3.399546553448933,10.003810975609756,3.870149938071646,0.6170339209401732,-12.576914262820512,0.526028716653711,-14.777524258593967,-2.5661604020979016,-1.6726212489433638,29.09896067331596,33.65163087429239,35.52062179890376,1577399134.0,-27.703713484249977,-51.10930849418905,24.034063
12875,1577399134.15,0.193755148985327,-0.043913162157012,11.198148325850322,-0.5322719056664437,-0.805327685249142,10.55521758735471,-0.6840409328553727,-1.621166499737995,9.267954626464844,2.4590841153772867,1.407158084032012,3.8839200647865857,3.9283938524199695,-9.007151533917684,4.495015958460366,-5.596812178448933,21.47842035060976,4.572054234946647,2.379987980769229,-12.576914262820512,0.526028716653711,-16.421085825232456,-27.1279813936064,-2.852579511834319,28.907269296432744,33.891245095396414,35.52062179890376,1577399134.0,-27.703713484249977,-51.10930849418905,24.034063
12876,1577399134.16,0.1039725867294681,-0.1827768584460745,10.373345853926494,-0.8291529115258186,-0.3336699581983606,7.777943661573456,1.825082406988376,0.1577253337580975,8.427589843749999,-0.1654276033727134,2.7957078887195124,4.219613424161586,-2.4192623975800305,-2.751048018292683,3.9762171303353657,4.168812821551067,6.341701600609756,5.609651891196647,1.8511017628205124,-11.96340625,0.0751469595219524,-16.421085825232456,-27.1279813936064,-2.852579511834319,29.12292209542636,33.939167939617214,35.616467487345375,1577399134.0,-27.703713484249977,-51.10930849418905,24.034063
12877,1577399134.17,-0.1462214867568594,-0.5778201323718558,7.882179026533917,0.245843633884337,0.5617614627000758,9.79266435859494,-3.0004310390565454,-1.801928725079792,9.39843861694336,-0.6231912752477134,5.710136599657012,4.891000142911586,-0.5882077100800309,-1.1183575886051838,4.861226895960366,-0.1799420612614328,2.877956483422256,4.938265172446647,1.6748063568376068,-13.803930288461538,-0.0751469595219649,-0.807250942166808,-1.6496745442057943,-4.032537774725275,29.09896067331596,33.963129361727624,35.544583221014165,1577399134.0,-27.703713484249977,-51.10930849418905,24.034063
12878,1577399134.18,0.0524972510361083,0.2170548188000182,9.653888255049544,0.2554204405249616,-0.8723653317335169,9.597536923292203,-0.2028063991639664,-1.97550834544112,10.658985791015624,-0.0433572908727134,3.604423709032013,4.067025533536586,-6.294994819455031,11.195485184832316,4.372945645960366,0.2015276653010671,10.125881288109756,2.405306188071646,0.7933293269230788,-12.781416933760685,-1.1272043928293995,-14.777524258593967,-3.299349088411588,-40.90623349006763,28.907269296432744,33.699553718513194,35.76023602000779,1577399134.0,-27.703713484249977,-51.10930849418905,24.034063
12879,1577399134.19,-0.7663197167373281,-0.4198028228015433,11.016188999678448,-0.4795994691430061,-1.535559191596798,8.445925924757049,0.4771468723204074,-1.2117580158512764,9.165003955078124,-2.0880350252477133,2.5057908965320124,4.189095846036586,-1.9004635694550305,-8.549387862042684,3.6405237709603657,4.260365555926067,9.942775819359756,0.7878745474466463,0.7933293269230788,-13.599427617521366,-0.2254408785658824,-14.777524258593967,-3.299349088411588,-40.90623349006763,29.146883517536764,34.08293647227963,35.76023602000779,1577399134.0,-27.703713484249977,-51.10930849418905,24.034063
12880,1577399134.2,-0.2683257714248282,-0.2474203032702933,8.030619529463605,-0.9728050111351936,1.0453901980516382,10.10750187690549,-0.4709569851014665,1.0411857463557537,9.153032946777342,-0.8062967439977133,3.909599490282013,4.158578267911586,-4.799633491330031,2.314869950457317,5.227437833460366,4.168812821551067,2.679592225609756,1.6728843130716462,1.14592013888889,-11.554400908119655,1.5780861499611456,-16.421085825232456,-3.665943431568431,-41.4962126215131,29.07499925120556,33.939167939617214,35.76023602000779,1577399134.0,-27.703713484249977,-51.10930849418905,24.034063
12881,1577399134.21,-0.0576360253310781,-0.063066775438262,8.313135325362042,0.0052263670386339,-0.920249364936642,7.830616098096893,-0.5822873622987321,-0.2516831501286202,9.203311181640624,-0.3485330721227134,1.407158084032012,4.067025533536586,1.1665530321074695,1.811329911394816,3.9609583412728657,1.2543841106135671,4.663234803734756,2.603670445884146,1.4985109508547012,-12.781416933760685,0.3757347976097936,-7.792387600380389,-2.0162688873626373,-20.699448238060015,29.29065205019917,33.84332225117561,35.56854464312457,1577399134.0,-27.703713484249977,-51.10930849418905,24.034063
12882,1577399134.22,-0.3569112328506094,-0.158834841844512,10.719307993819072,-1.6623350892601936,-0.6664639889600794,9.456279025342988,-0.9809219387147476,-0.4456134846012765,7.493851196289062,-2.0269998689977133,-0.6985548065929879,3.8228849085365857,2.799243461794969,-21.30573551829268,5.166402677210366,-4.498179365948933,16.748195741234756,4.236360875571647,2.556283386752135,-12.781416933760685,-0.2254408785658824,-16.215640629402646,-27.31127856518481,-2.70508472897295,29.19480636175757,33.891245095396414,35.52062179890376,1577399134.0,-27.703713484249977,-51.10930849418905,24.034063
12883,1577399134.23,-0.4359198876357656,-0.0367305571765433,10.42721539128001,-0.6184631654320686,0.4444455813524195,10.545640780714084,0.6710772067930637,0.4713657512385662,6.868964562988281,-1.904929556497713,2.6888963652820124,3.9449552210365857,-3.670483100705032,5.153004716082317,4.403463224085366,4.168812821551067,14.398342225609756,6.464144078696647,1.8511017628205124,-11.96340625,-0.5260287166537173,-13.133962691955478,-27.1279813936064,-2.852579511834319,29.09896067331596,34.08293647227963,35.616467487345375,1577399134.0,-27.703713484249977,-51.10930849418905,24.034063
12884,1577399134.24,-0.0648186303115474,-0.1468638335437308,7.952807975508526,-0.8650659364281623,0.0877095339891383,9.228829867628145,0.3263121677305637,-1.3961115436833076,8.55448253173828,-0.8978494783727133,4.397880740282012,4.189095846036586,-0.2830319288300305,-4.460032393292683,4.983297208460366,4.016224930926067,15.100246522484756,4.541536656821647,1.4985109508547012,-12.781416933760685,-0.2254408785658824,-13.133962691955478,-27.1279813936064,-2.852579511834319,29.170844939647168,33.699553718513194,35.616467487345375,1577399134.0,-27.703713484249977,-51.10930849418905,24.034063
12885,1577399134.25,-0.3209982079482656,0.0470665009289244,10.250044468428449,-0.1875068666039441,-0.5276002926710175,7.925187063673065,-0.0352122829530294,-0.0421905048649488,8.971073620605468,-3.980124868997713,1.712333865282012,3.9754727991615857,-3.746777046017531,3.8407488567073167,4.021993497522866,-3.765757490948933,7.318264100609756,3.915926305259146,1.4985109508547012,-12.781416933760685,-0.2254408785658824,-8.100555394125104,-2.4745118163086914,-19.88822693232249,29.146883517536764,33.86728367328601,35.544583221014165,1577399134.0,-27.703713484249977,-51.10930849418905,24.034063
12886,1577399134.26,-0.4263430809951407,-0.4054376128406058,9.510236155440168,-1.6623350892601936,-0.9609507931592982,8.97504449165158,0.7141728366758763,-0.7712249103825265,10.144232434082031,-4.529441275247714,2.5057908965320124,3.8839200647865857,-3.3347897413300305,0.056569169207317,4.189840177210366,-1.9652203815739329,8.355861756859756,0.5742515005716463,1.14592013888889,-11.554400908119655,0.3757347976097936,-15.599305041913214,-2.1995660589410586,-36.1864004385038,29.146883517536764,33.891245095396414,35.616467487345375,1577399134.0,-27.703713484249977,-51.10930849418905,24.034063
12887,1577399134.27,-0.3401518212295157,-0.130104421922637,8.155118015791729,0.5163884214819928,-1.370359277046017,8.86012281196408,0.27124552954697,-0.0362050007145577,8.528146313476562,-2.1795877596227133,6.137382693407012,3.5787442835365857,-2.7549557569550305,-1.0725812214176829,4.983297208460366,1.9105120403010671,5.029445741234756,0.9709800161966464,1.14592013888889,-10.736390224358974,-0.8266165547415584,-13.133962691955478,-25.66160402097902,1.2772744082840235,29.19480636175757,33.747476562734,35.66439033156618,1577399134.0,-27.703713484249977,-51.10930849418905,24.034063
12888,1577399134.28,-0.8058240441299063,-0.1564406401843562,8.847042295576886,-0.4365038392601936,-1.4158491085889855,9.84653389594846,-0.0759137111756852,-1.3147086872379952,9.516951599121091,-3.232444204935214,2.6888963652820124,4.005990377286586,-3.762035835080032,-2.812083174542683,5.044332364710366,-0.0731305378239328,2.038723084984756,2.069612828696646,1.9392494658119648,-13.292673611111107,0.4508817571317522,-2.450812508805297,-4.032537774725275,-4.032537774725275,29.146883517536764,33.699553718513194,35.616467487345375,1577399134.0,-27.703713484249977,-51.10930849418905,24.034063
12889,1577399134.29,-0.7687139183974844,-0.283333328172637,10.604386314131572,-0.138425732570741,0.2074196169969512,10.147006204298066,0.0665412876036111,2.3328575420100512,12.035651745605469,-4.743064322122714,-3.048408322217988,2.8158048304115857,-5.669384467892531,14.598195145769818,3.0301722084603657,-5.810435225323933,-5.789035704077744,4.068514195884147,0.0881477029914492,-14.008432959401707,0.3757347976097936,-2.964425498379825,-3.940889188936064,-2.778832120403635,29.19480636175757,33.747476562734,35.616467487345375,1577399134.0,-27.703713484249977,-51.10930849418905,24.034063
12890,1577399134.3,-0.3329692162490469,-0.5347245024890432,9.67543606999095,-1.2984164369164437,-0.5850611325147669,11.857663290479708,-0.2435078273866227,-1.4224477619450264,9.595960253906249,-0.1654276033727134,3.665458865282013,4.005990377286586,-4.524975288205031,-1.8965558307926829,5.288472989710366,3.039662430926067,-17.645114805640244,9.088655797446648,1.6748063568376068,-12.576914262820512,0.526028716653711,-3.2725932921245406,-4.032537774725275,-2.852579511834319,29.43442058286159,33.891245095396414,35.616467487345375,1577399134.0,-27.703713484249977,-51.10930849418905,24.034063
12891,1577399134.31,-0.5221111474013906,-0.4485332427234182,9.627552036787824,-1.542625006252381,-0.5252060910108607,9.784284652784391,-0.5858786647889664,-1.736088179425495,10.678139404296877,-2.2711404939977133,2.9025194121570124,4.280648580411586,-1.8394284132050305,-6.535227705792683,3.6405237709603657,-9.686167647198932,-6.628269102515244,7.074495641196647,1.14592013888889,-12.372411591880342,-1.1272043928293995,-2.656257704635109,-3.849240603146853,-1.2301369003592555,29.19480636175757,33.939167939617214,35.66439033156618,1577399134.0,-27.703713484249977,-51.10930849418905,24.034063
12892,1577399134.32,-0.8393428673720937,-0.4377593352527151,9.428833298994856,1.1352895506323832,-0.3360641598585174,9.159398019483612,0.5693236362364231,0.1277978130061448,10.317812054443358,-3.0951151033727133,0.5526658965320121,4.021249166349086,-7.744579780392532,9.44072444264482,3.3200892006478657,-0.5156354206364329,1.2757836318597562,5.594393102134147,2.203692574786324,-12.78141693376068,0.526028716653711,0.4254202328120589,-4.032537774725275,-1.3776316832206257,29.24272920597837,33.963129361727624,35.9040045526702,1577399134.0,-27.703713484249977,-51.10930849418905,24.034063
12893,1577399134.33,-0.3066329979873282,-0.0199711455554495,8.887743723799543,-1.4157323182640995,0.353465918266482,11.757106820753146,-1.6560868068788102,-2.475896492413776,9.509768994140623,0.8111348966272866,1.285087771532012,3.9144376429115857,-0.4661373975800305,-5.924876143292683,4.678121427210366,-1.1107281940739329,3.228908631859756,1.4897788443216462,1.3222155448717956,-12.576914262820512,0.2254408785658761,-11.28495592948718,-3.1160519168331664,-36.92387435281065,29.09896067331596,33.84332225117561,35.66439033156618,1577399134.0,-27.703713484249977,-51.10930849418905,24.034063
12894,1577399134.34,-0.5652067772842032,-0.9537097930163868,9.280392796065168,-1.1834947572289436,-2.1724168331983607,9.125879196241424,-2.23069520531631,0.8735916301448162,13.273454003906249,-2.3321756502477133,3.0551073027820124,4.067025533536586,-2.0835690382050305,-0.6148175495426829,4.128805020960366,0.8423968059260671,3.534084413109756,1.1540854849466462,2.908874198717946,-13.190422275641025,-0.5260287166537173,-12.312181908636234,1.832971715784216,-37.07136913567202,29.338574894419985,33.939167939617214,34.993470512474914,1577399134.0,-27.703713484249977,-51.10930849418905,24.034063
12895,1577399134.35,-0.687311061952172,-0.3036840422839651,10.186598124434306,2.156416558689024,-1.6169620480421107,8.972650289991424,-1.3783594143006852,2.286170609637004,13.730746520996092,-1.9659647127477136,0.3237840605945123,3.7618497522865857,-8.492260444455031,6.709401200457317,4.311910489710366,-5.200083662823933,-18.041843321265244,3.168245641196646,1.586658653846154,-12.6791655982906,-1.0520574333074375,-15.18841465025359,-21.629066246253743,-4.032537774725275,29.266690628088774,33.84332225117561,35.52062179890376,1577399134.0,-27.703713484249977,-51.10930849418905,24.034063
12896,1577399134.36,-0.9506732445693594,-0.1636232451648245,9.072097251631574,-1.609662652736756,-0.4126786129835174,10.4079741852551,0.0258398593809548,-0.940016127423542,9.581595043945311,-0.8368143221227134,1.742851443407012,3.8534024866615857,2.005786430544969,-10.075266768292684,4.464498380335366,-2.712901045636433,-13.143772032202744,4.861971227134147,0.4407385149572675,-11.554400908119655,0.9769104737854758,-2.0399221171456747,-4.032537774725275,-1.6726212489433638,29.146883517536764,33.891245095396414,35.927965974780605,1577399134.0,-27.703713484249977,-51.10930849418905,24.034063
12897,1577399134.37,-1.015316689393578,-0.5778201323718558,9.91006783268626,-0.0414605653344124,-1.9449676754835168,10.136232296827366,-1.3831478176209977,-1.0872595295231515,11.279084020996091,-3.2171854158727133,-0.7595899628429879,4.128060689786586,-3.2737545850800305,8.143727372332316,4.342428067835366,3.253285477801067,-18.499606993140244,8.112093297446647,0.4407385149572675,-11.554400908119655,0.9769104737854758,-12.928517496125668,-25.84490119255744,-2.70508472897295,29.146883517536764,33.891245095396414,35.52062179890376,1577399134.0,-27.703713484249977,-51.10930849418905,24.034063
12898,1577399134.38,-1.1948818139052968,-0.7382316436023244,11.662623447920636,-1.3032048402367562,-0.9872870114210168,11.132220187452363,1.604815854254001,1.6325535564143474,8.99501563720703,-0.8062967439977134,1.254570193407012,3.9754727991615857,1.5785403367949695,-13.401682783917684,3.4879358803353657,-6.542857100323933,-4.919284727515244,6.525179234946647,3.085169604700852,-12.167908920940173,0.2254408785658761,-3.2725932921245406,-26.02819836413586,-4.032537774725275,29.09896067331596,33.747476562734,35.76023602000779,1577399134.0,-27.703713484249977,-51.10930849418905,24.034063
12899,1577399134.39,-0.7735023217177969,-0.4305767302722463,8.526219273115949,-0.5514255189476936,0.1355935671922633,11.369246151807834,-1.0958436184022478,-1.8246736408512765,6.701370446777343,-1.1419901033727131,0.8578416777820121,3.8228849085365857,-3.0296139600800305,3.596608231707317,3.9151819740853657,0.2625628215510671,3.625637147484756,5.212923375571647,1.3222155448717956,-13.803930288461537,0.3757347976097935,-12.312181908636234,-3.665943431568431,-4.032537774725275,29.12292209542636,34.08293647227963,35.616467487345375,1577399134.0,-27.703713484249977,-51.10930849418905,24.034063
12900,1577399134.4,-1.022499294374047,-0.0798261870593557,9.68740707829173,-1.2589121095238656,-0.6724494931104705,7.93476387031369,-1.7398838649842792,-0.5425786518376047,8.989030133056641,-0.6537088533727134,-1.644599728467988,3.9144376429115857,-0.2982907178925305,-0.7521466511051833,4.388204435022866,-0.6834821003239329,1.3368187881097562,3.564974156821646,0.7933293269230788,-13.190422275641025,0.3757347976097936,0.8363106244716829,-1.099783029470529,-37.661348267117496,29.29065205019917,33.963129361727624,35.56854464312457,1577399134.0,-27.703713484249977,-51.10930849418905,24.034063
12901,1577399134.41,-1.254736855409203,-0.2522087065906058,11.684171262862042,-1.3654540834008186,-0.7813856686475794,11.225594052198458,-1.8883243679139663,-0.4360366779606514,13.986926098632813,-0.8978494783727134,-1.888740353467988,4.158578267911586,-1.4426998975800305,3.627125809832317,2.1146448647103657,-3.460581709698933,-13.464206602515244,1.3066733755716462,0.7933293269230788,-13.190422275641025,0.3757347976097936,0.219975036982249,-2.3828632305194803,-41.053728272929,29.09896067331596,33.891245095396414,35.52062179890376,1577399134.0,-27.703713484249977,-51.10930849418905,24.034063
12902,1577399134.42,-0.6346386254287344,-1.6121152495593556,10.046537327315166,0.0519132994116803,-2.165234228217892,10.59352481391721,1.2337145969297822,1.82887809254716,11.470620153808593,-1.7218240877477131,1.986992068407012,4.311166158536586,3.348559868044969,3.260914872332317,3.6710413490853657,-0.8055524128239329,-20.513767149390244,3.992220250571646,1.4985109508547012,-13.190422275641025,0.6763226356976285,-2.450812508805297,-4.032537774725275,-40.61124392434488,29.09896067331596,33.939167939617214,35.616467487345375,1577399134.0,-27.703713484249977,-51.10930849418905,24.034063
12903,1577399134.43,-0.7004791710830313,-0.0211682463855281,10.63191963322337,-0.5873385438500374,-1.255437597358517,9.259954489210177,0.5513671237852512,-0.4360366779606514,10.67574520263672,-0.7147440096227133,-2.331245236280488,3.7160733850990857,-1.6868405225800305,-5.406077315167683,5.074849942835366,-4.437144209698933,-15.691989805640244,7.349153844321647,2.115544871794871,-12.065657585470085,0.1502939190439173,-2.450812508805297,-4.032537774725275,-40.61124392434488,29.19480636175757,33.891245095396414,35.616467487345375,1577399134.0,-27.703713484249977,-51.10930849418905,24.034063
12904,1577399134.44,-1.1422093773818591,-0.417408621141387,11.23166714909251,-1.015900641018006,-0.7023770138624232,12.104266061475805,0.3777875034239235,1.6062173381526292,11.942277880859374,-0.8062967439977134,-0.7901075409679879,3.5787442835365857,1.7921633836699693,-4.749949385480184,3.1522425209603657,-6.863291670636432,-15.905612852515244,5.808016149009147,3.2614650106837644,-13.190422275641025,0.6763226356976285,-2.450812508805297,-3.665943431568431,-1.672621248943364,29.146883517536764,33.7714379848444,35.544583221014165,1577399134.0,-27.703713484249977,-51.10930849418905,24.034063
12905,1577399134.45,-0.5388705590224844,-1.164399539110137,10.609174717451886,1.1005736265601178,-0.0942497921827357,11.893576315382052,1.774804172125095,0.3732034831721599,9.66539210205078,1.0247579435022869,1.803886599657012,4.341683736661586,-1.7478756788300305,2.864186356707317,3.2132776772103657,4.290883134051067,-25.182956602515244,8.966585484946647,3.2614650106837644,-13.190422275641025,0.6763226356976285,-14.57207906276416,-27.31127856518481,-2.70508472897295,29.29065205019917,33.699553718513194,35.66439033156618,1577399134.0,-27.703713484249977,-51.10930849418905,24.034063
12906,1577399134.46,-1.1589687890029532,-0.3958608061999807,10.949151353194074,-2.4907288636742573,-0.3169105465772669,10.430719101026584,-0.9761335353944351,-0.8574161701481515,10.012551342773437,-1.7218240877477131,-1.461494259717988,3.8839200647865857,-2.0530514600800305,1.6740008098323171,3.9151819740853657,-6.817515303448933,-7.726901915015244,5.792757359946647,2.027397168803418,-12.167908920940173,0.8266165547415459,-10.874065537827557,-3.849240603146853,-3.5900534261411665,29.00311498487435,33.699553718513194,35.616467487345375,1577399134.0,-27.703713484249977,-51.10930849418905,24.034063
12907,1577399134.47,-0.4909865258193599,-0.5682433257312307,9.815496867110088,-0.071388086086366,-1.0986173886182826,9.809423770216036,-0.4051164394471701,0.3851744914729423,9.424774835205078,1.2688985685022869,-1.614082150342988,4.082284322599086,3.806323539919968,-1.7439679401676838,3.8388880287728657,7.067982743426067,-10.488742735327744,6.601473180259147,2.203692574786324,-11.349898237179486,-0.3757347976097998,-5.737935642082276,-4.032537774725275,-22.32189084953508,29.12292209542636,33.891245095396414,35.688351753676585,1577399134.0,-27.703713484249977,-51.10930849418905,24.034063
12908,1577399134.48,-1.2978324852920156,-0.1732000518054495,12.28511587956126,-1.868236432033631,-0.4031018063428919,11.043634726026584,-0.763049587640529,0.7490931438166912,11.319785449218749,-0.2264627596227134,-0.2102735565929878,4.005990377286586,5.393237602419969,-9.220774580792684,3.3353479897103657,0.1099749309260671,-9.130710508765244,-0.7380043588033537,2.908874198717946,-11.554400908119655,0.3757347976097936,-13.133962691955478,1.832971715784216,-39.431285661453934,29.146883517536764,33.891245095396414,35.80815886422859,1577399134.0,-27.703713484249977,-51.10930849418905,24.034063
12909,1577399134.49,-0.6035140038467032,-0.9082199614734182,10.71451959049876,-0.1755358583031624,-0.7789914669874232,10.50254515083127,-0.7774147976014665,3.3348309367854423,11.93270107421875,-0.0433572908727134,-0.8206251190929879,3.8228849085365857,2.005786430544969,5.641285966082317,4.403463224085366,0.6898089153010671,2.954250428734756,2.802034703696646,2.908874198717946,-11.554400908119655,0.3757347976097936,-12.928517496125668,3.48264625999001,-41.34871783865174,29.19480636175757,33.939167939617214,35.95192739689101,1577399134.0,-27.703713484249977,-51.10930849418905,24.034063
12910,1577399134.5,-0.5388705590224844,-0.5574694182605275,10.748038413740948,0.059095904392149,-1.0591130612257045,11.589512704542209,-0.7031945461366227,-3.8286204304020575,13.92467685546875,2.8863302091272867,-2.834785275342988,4.051766744474086,-0.3135495069550305,-0.6453351276676829,4.983297208460366,0.3541155559260671,-10.778659727515244,3.717562047446646,2.556283386752135,-12.985919604700854,0.0751469595219556,-12.723072300295856,-21.629066246253743,-4.032537774725275,29.146883517536764,33.747476562734,35.52062179890376,1577399134.0,-27.703713484249977,-51.10930849418905,24.034063
12911,1577399134.51,-0.7567429100967031,-0.3551593779773245,11.693748069502666,-0.6424051820336312,-0.6473103756788294,10.870055105665251,-0.3105454738709982,0.6413540691096605,8.86812294921875,1.8182149747522869,-2.132880978467988,3.8839200647865857,3.592700493044969,-3.132517744855183,3.1827600990853657,3.482167313738567,2.099758241234756,3.946443883384146,2.027397168803418,-12.167908920940173,-0.9769104737854758,-7.586942404550578,-3.849240603146853,-3.8850429918639056,29.29065205019917,33.7235151406236,35.59250606523497,1577399134.0,-27.703713484249977,-51.10930849418905,24.034063
12912,1577399134.52,-0.6250618187881094,-0.7573852568835745,10.800710850264386,-0.6112805604515998,-1.1788231442335169,9.698093393018768,-0.6409453029725602,-1.206969612530964,12.224793676757812,0.6890645841272866,0.2474901152820121,4.402718892911586,3.440112602419969,-0.6148175495426829,4.952779630335366,4.168812821551067,-7.635349180640244,6.494661656821647,2.203692574786324,-13.190422275641025,-0.2254408785658824,-13.133962691955478,-4.032537774725275,-4.032537774725275,29.29065205019917,33.84332225117561,35.47269895468296,1577399134.0,-27.703713484249977,-51.10930849418905,24.034063
12913,1577399134.53,-0.1893171166396719,-0.2761507231921683,11.5333365582722,-0.7118370301781624,0.6551353274461695,13.342068319776583,0.1587180515196262,-0.6682742389958077,10.881646545410156,4.778420052877286,-0.6985548065929879,4.219613424161586,0.0526614305449695,-0.1570538776676829,3.8846643959603657,-2.117808272198933,-6.414646055640244,3.290315953696646,2.203692574786324,-11.554400908119655,0.9769104737854758,-12.517627104466046,-3.48264625999001,-3.8850429918639056,29.146883517536764,33.939167939617214,35.66439033156618,1577399134.0,-27.703713484249977,-51.10930849418905,24.034063
12914,1577399134.54,-0.1821345116592032,-0.3527651763171683,9.984288084151103,0.6839825376929304,-0.0631251706007044,12.07314143989377,-1.261043532953029,2.4561589275080986,10.919953771972656,3.0084005216272867,-1.736152462842988,4.005990377286586,3.195971977419969,-5.070383955792683,3.6710413490853657,-4.131968428448933,-12.884372618140244,5.762239781821647,1.6748063568376068,-13.394924946581195,-0.0751469595219649,-11.901291516976611,-3.665943431568431,-4.032537774725275,28.955192140653548,33.84332225117561,35.424776110462155,1577399134.0,-27.703713484249977,-51.10930849418905,24.034063
12915,1577399134.55,-0.6035140038467032,-0.201930471727325,11.463904710127666,-1.2313787904320683,-0.6113973507764862,9.379664572217989,-0.956979922113186,-3.095994722394245,11.473014355468749,3.283058724752286,1.2545701934070124,4.402718892911586,3.424853813357469,-10.349924971417684,5.532613614710366,-6.176646162823932,-6.658786680640244,4.053255406821647,1.4985109508547012,-12.781416933760685,0.0751469595219556,-13.339407887785288,-3.849240603146853,-22.91186998098056,29.027076406984754,33.699553718513194,35.59250606523497,1577399134.0,-27.703713484249977,-51.10930849418905,24.034063
12916,1577399134.56,-0.8381457665420157,-1.059054666063262,9.653888255049544,-2.172300042873475,-1.7414605343702356,11.374034555128146,0.90331476782822,2.243074979754191,8.844180932617187,5.846535287252286,2.8414842559070124,4.311166158536586,5.545825493044969,0.3922625285823171,2.7555140053353657,2.520863602801067,-0.5552710556402439,2.893587438071646,0.6170339209401732,-12.167908920940173,-0.6763226356976347,-11.28495592948718,-19.979391702047952,-35.74391608991969,29.146883517536764,34.08293647227963,35.66439033156618,1577399134.0,-27.703713484249977,-51.10930849418905,24.034063
12917,1577399134.57,-0.8908182030654531,0.3511301117687682,10.27398648503001,-0.2282082948265999,-1.379936083686642,7.969479794385956,-1.21555370141006,0.3372904582698162,12.064382165527345,4.625832162252286,0.6747362090320121,4.158578267911586,8.048266899294969,-3.544505049542683,3.1217249428353657,4.504506180926067,11.895900819359756,4.175325719321647,2.027397168803418,-12.985919604700852,-0.0751469595219649,-12.517627104466046,-19.979391702047952,-38.103832615701606,29.09896067331596,34.08293647227963,35.80815886422859,1577399134.0,-27.703713484249977,-51.10930849418905,24.034063
12918,1577399134.58,-0.2419895531631094,-0.2186898833484183,9.44559271061595,-0.7417645509301161,-0.3899336972120331,9.694502090528536,-0.1154180385682638,2.2107532573420823,10.00417163696289,4.045998177877286,-3.475654415967988,4.311166158536586,7.819385063357469,-5.604441572980184,4.998555997522866,6.930653641863568,6.234890077172256,2.771517125571646,1.8511017628205124,-11.554400908119655,-0.8266165547415584,-9.538671764933785,-13.655639282592407,-2.4838425546808955,29.146883517536764,33.891245095396414,35.688351753676585,1577399134.0,-27.703713484249977,-51.10930849418905,24.034063
12919,1577399134.59,-0.1653751000381094,-0.4688839568347463,11.67339735539134,-2.4667868470726946,-2.203541454780392,8.414801303175018,-1.6369331935975602,-2.7440470783512763,11.468225952148437,1.8639913419397869,-2.010810665967988,4.082284322599086,5.027026664919969,2.101246903582317,4.250875333460366,2.765004227801067,0.5128441787347561,4.327913609946647,2.115544871794871,-11.861154914529914,-0.601175676175679,-14.777524258593967,-23.46203796203796,-2.852579511834319,29.146883517536764,33.65163087429239,35.76023602000779,1577399134.0,-27.703713484249977,-51.10930849418905,24.034063
12920,1577399134.6,0.2464275855087645,0.1883243988781432,11.78712193424876,0.4996290098608991,0.2146022219774195,12.32932101753049,1.6407288791563448,-0.1966165119450264,12.483367456054689,4.778420052877286,3.726494021532013,4.402718892911586,0.1136965867949695,0.4838152629573171,5.105367520960366,8.990590165301068,8.722072694359756,2.649446813071646,2.908874198717946,-13.599427617521366,0.0751469595219524,-1.629031725486053,-2.5661604020979016,-4.032537774725275,29.146883517536764,33.939167939617214,35.616467487345375,1577399134.0,-27.703713484249977,-51.10930849418905,24.034063
12921,1577399134.61,0.1793899390243895,-0.2498145049304495,9.25405657780345,-1.3463004701195689,0.439657178032107,11.206440438917207,0.3526483859922824,1.9892896037776289,9.943119494628906,6.670509896627286,4.336845584032012,4.829964986661586,3.8978762742949695,-2.079661299542683,3.6100061928353657,9.753529618426068,-17.339939024390244,5.731722203696647,1.8511017628205124,-11.554400908119655,-0.5260287166537173,-1.629031725486053,-3.299349088411588,-1.6726212489433638,29.146883517536764,33.84332225117561,35.856081708449395,1577399134.0,-27.703713484249977,-51.10930849418905,24.034063
12922,1577399134.62,0.3278304419540775,0.345144607618378,10.39010526554759,1.323234380954649,-1.6456924679639855,7.22009467475705,-2.3192806667420918,0.9789365031916912,7.015010864257812,2.8405538419397867,-1.018989376905488,3.9449552210365857,1.2428469774199695,3.810231278582317,6.478658536585366,9.326283524676068,3.595119569359756,6.158968297446647,1.6748063568376068,-13.803930288461538,-0.0751469595219649,-1.629031725486053,-2.9327547452547447,-3.737548209002536,29.146883517536764,33.891245095396414,35.52062179890376,1577399134.0,-27.703713484249977,-51.10930849418905,24.034063
12923,1577399134.63,0.4547231299423583,-0.7502026519031058,9.71853169987376,-0.7106399293480848,-0.1696671444776581,8.763157644727752,-0.7235452602479514,-2.370551619366901,8.817844714355468,0.7195821622522866,0.2780076934070121,4.616341939786586,-1.0764889600800305,5.137745927019817,5.166402677210366,4.626576493426067,11.224514100609756,2.557894078696646,0.0881477029914492,-11.554400908119655,-0.5260287166537173,-9.538671764933785,-0.2749457573676321,-39.06254870430051,29.09896067331596,34.01105220594842,35.688351753676585,1577399134.0,-27.703713484249977,-51.10930849418905,24.034063
12924,1577399134.64,-0.1007316552138906,-0.6041563506335745,10.187795225264386,1.1197272398413678,-0.5156292843702357,10.193693136671117,-0.4326497585389665,1.9318287639338787,11.1474029296875,3.3440938810022867,9.311210818407012,4.952035299161586,0.1442141649199695,8.967701981707316,4.647603849085366,5.786244462176067,5.975490663109756,0.7268393911966463,2.556283386752135,-11.96340625,-0.5260287166537173,-16.421085825232456,1.832971715784216,-41.201223055790365,29.09896067331596,33.747476562734,35.52062179890376,1577399134.0,-27.703713484249977,-51.10930849418905,24.034063
12925,1577399134.65,-0.5508415673232657,1.117274643018768,11.892466807295635,-0.8698543397484748,0.9639873416063256,10.409171286085176,1.1283697238829076,3.045132535906536,8.628702783203124,2.6727071622522867,1.803886599657012,3.8839200647865857,5.179614555544969,0.6364031535823171,4.403463224085366,4.626576493426067,4.571682069359756,2.313753453696646,0.4407385149572675,-11.554400908119655,0.0751469595219524,-16.010195433572836,2.932754745254746,-38.84130653000845,29.146883517536764,33.891245095396414,35.616467487345375,1577399134.0,-27.703713484249977,-51.10930849418905,24.034063
12926,1577399134.66,-0.5233082482314688,0.201492508009003,9.792751951338603,0.6791941343726179,-0.920249364936642,9.848928097608615,-1.3520231960389664,-0.967549446515339,8.56166513671875,0.9026876310022868,1.727592654344512,4.036507955411586,-3.0296139600800305,15.162770341082316,3.2132776772103657,1.2696428996760671,0.177150819359756,1.0625327505716462,1.3222155448717956,-12.167908920940173,0.8266165547415459,-16.421085825232456,-4.032537774725275,-41.201223055790365,29.09896067331596,33.84332225117561,35.28100757779974,1577399134.0,-27.703713484249977,-51.10930849418905,24.034063
12927,1577399134.67,-0.0648186303115469,0.8491240570812681,10.891690513350325,-0.6076892579613655,0.1822804995653106,9.535287680128144,-1.064718996820217,-0.657500331525105,8.273163836669921,3.1304708341272867,4.367363162157012,4.311166158536586,-0.7865719678925305,5.763356278582317,4.357686856897866,6.396596024676068,9.515529725609756,4.449983922446647,3.614055822649576,-14.41743830128205,-0.2254408785658824,-8.20327799204001,-14.297179383116882,-3.590053426141166,29.09896067331596,33.819360829065204,35.64042890945578,1577399134.0,-27.703713484249977,-51.10930849418905,24.034063
12928,1577399134.68,-0.0336940087295156,0.1907186005382994,10.886902110030013,0.0974031309546491,-0.843634911811642,7.4307844208508,0.2377267063047825,-0.689822053937214,9.193734375,-2.1795877596227133,-0.8816602753429879,3.6092618616615857,0.1747317430449695,14.766041825457316,4.189840177210366,5.694691727801067,7.165676209984756,4.877230016196647,2.379987980769229,-12.985919604700852,-0.6763226356976347,-3.2725932921245406,-26.761387050449542,-3.4425586432797965,29.19480636175757,33.891245095396414,35.76023602000779,1577399134.0,-27.703713484249977,-51.10930849418905,24.034063
12929,1577399134.69,0.3733202734970458,-0.8387881133288869,7.86063121159251,-0.0462489686547249,-0.8939131466749232,7.093201986768769,1.0780914890196265,2.3149010295588788,9.574412438964844,4.595314584127286,5.771171755907012,4.463754049161586,6.797046196169969,-12.913401533917684,6.417623380335366,7.373158524676067,12.109523866234756,5.060335484946647,1.4985109508547012,-10.736390224358974,0.3757347976097936,2.274426995280358,0.549891514735265,-36.92387435281065,29.19480636175757,34.08293647227963,35.66439033156618,1577399134.0,-27.703713484249977,-51.10930849418905,24.034063
12930,1577399134.7,0.5253520789169677,0.1416374665050968,10.068085142256573,0.1548639707983996,-0.4797162594678925,8.510569369581269,-1.0671131984803728,-2.319076283673542,7.551312036132812,2.001320443502286,3.5586473418445124,3.5482267054115857,1.9600100633574693,-2.461131026105183,3.9762171303353657,5.435292313738567,12.857204530297258,1.8407309927591464,2.379987980769229,-12.167908920940173,0.8266165547415459,-6.148826033741901,-1.6496745442057938,-39.28379087859257,29.170844939647168,33.819360829065204,35.424776110462155,1577399134.0,-27.703713484249977,-51.10930849418905,24.034063
12931,1577399134.71,-0.7088588768935782,-0.3910724028796682,11.176600510908916,-2.3422883607445684,0.0230660891649195,11.036452121046116,0.932045187750095,0.670084489031535,5.904101293945312,-3.827536978372713,5.984794802782012,4.005990377286586,3.6842532274199695,-15.049632002667684,5.410543302210366,7.006947587176067,12.811428163109756,-2.080777796303354,1.8511017628205124,-10.736390224358974,0.3757347976097936,-16.010195433572836,-19.79609453046953,-35.89141087278106,29.338574894419985,33.699553718513194,35.616467487345375,1577399134.0,-27.703713484249977,-51.10930849418905,24.034063
12932,1577399134.72,0.232062375547827,0.5378778412609557,10.168641611983135,-0.1922952699242561,0.7700570071336695,7.935960971143769,1.1259755222227512,-0.6874278522770577,7.141903552246093,-0.8368143221227134,6.900322146532012,3.5177091272865857,0.0831790086699695,-1.1946515339176829,4.128805020960366,8.899037430926068,19.49477777248476,1.4287436880716462,2.908874198717946,-14.008432959401707,-0.2254408785658824,-16.010195433572836,-21.995660589410587,-3.737548209002536,29.146883517536764,33.939167939617214,35.616467487345375,1577399134.0,-27.703713484249977,-51.10930849418905,24.034063
12933,1577399134.73,0.5433085913681396,0.7078661591320494,8.150329612471417,0.0471248960913678,-1.037565246284298,5.963138803175019,-1.059930593499904,-0.0170513874333077,11.784260571289062,0.2007833341272865,6.442558474657012,3.5482267054115857,-0.6797604444550305,5.000416825457317,4.159322599085366,-0.7445172565739329,13.574367616234756,0.3911460318216463,1.4985109508547012,-11.554400908119655,0.9769104737854758,-3.067148096294731,-2.3828632305194803,-3.2950638604184275,29.19480636175757,33.84332225117561,35.66439033156618,1577399134.0,-27.703713484249977,-51.10930849418905,24.034063
12934,1577399134.74,0.3793057776474364,-0.1313015227527151,9.17025951969798,-0.0223069520531628,-0.3133192440870326,10.05004103706174,2.1949865634825168,1.3751768779475506,10.200496173095702,0.4144063810022865,6.778251834032012,3.1209806116615857,-4.860668647580031,7.167164872332316,4.006734708460366,4.458729813738567,12.323146913109756,3.931185094321647,2.203692574786324,-13.190422275641025,0.6763226356976285,-7.997832796210199,-14.480476554695304,-3.000074294695689,29.146883517536764,33.891245095396414,35.64042890945578,1577399134.0,-27.703713484249977,-51.10930849418905,24.034063
12935,1577399134.75,-0.2276243432021719,0.2386026337414244,11.401655466963604,0.0830379209937116,0.1834776003953883,9.932725155714085,-1.318504372796779,-0.5892655842106514,9.758765966796874,-4.254783072122714,6.656181521532012,2.9683927210365857,-1.1985592725800305,11.714284012957316,4.250875333460366,4.748646805926067,11.102443788109756,5.457064000571647,2.203692574786324,-13.190422275641025,0.6763226356976285,-2.861702900464919,-2.9327547452547447,-4.032537774725275,29.00311498487435,33.747476562734,35.76023602000779,1577399134.0,-27.703713484249977,-51.10930849418905,24.034063
12936,1577399134.76,0.088410275938452,0.1763533905773619,9.768809934737044,1.3591474058569926,0.5210600344774196,9.341357345655489,-0.8181162258241227,0.4570005412776287,11.796231579589843,-0.7757791658727134,8.365165896532012,2.6632169397865857,2.188891899294969,-0.7368878620426829,4.708639005335366,0.9339495403010672,11.071926209984756,5.151888219321647,2.027397168803418,-12.167908920940173,-0.3757347976097998,-2.450812508805297,-3.665943431568431,-4.032537774725275,29.146883517536764,33.939167939617214,35.616467487345375,1577399134.0,-27.703713484249977,-51.10930849418905,24.034063
12937,1577399134.77,-0.7543487084365469,0.287683767774628,8.989497294356182,-1.0949092958031623,-1.9042662472608607,8.5416939911633,-1.6872114284608415,-2.6674326252262763,12.84489190673828,-2.2101053377477133,9.006035037157012,3.3346036585365857,-2.6634030225800305,3.047291825457317,3.4879358803353657,-9.075816084698932,7.470851991234756,2.466341344321646,2.203692574786324,-12.37241159188034,0.5260287166537141,-2.861702900464919,-3.665943431568431,0.6872952768385466,29.09896067331596,33.891245095396414,35.424776110462155,1577399134.0,-27.703713484249977,-51.10930849418905,24.034063
12938,1577399134.78,-2.114255251405297,-0.465292654344512,11.74881470768626,-1.7676799623070685,-0.1217831112745331,10.800623257520725,0.4472193515684543,-1.2536565449040111,7.948749511718749,0.4754415372522865,11.783134646532012,3.9449552210365857,-3.731518256955031,6.266896317644816,4.601827481897866,-1.2175397175114329,8.691555116234758,1.7339194693216462,1.4985109508547012,-13.599427617521366,0.9769104737854758,-8.511445785784728,-0.6415401005244752,-18.11828953798605,29.146883517536764,33.91520651750682,35.59250606523497,1577399134.0,-27.703713484249977,-51.10930849418905,24.034063
12939,1577399134.79,-0.8980008080459219,-1.1428517241687306,8.037802134444073,0.5427246397437115,-1.140515917671017,9.757948434522676,2.576861728277439,-0.2085875202458077,8.21690009765625,-6.696189322122714,7.174980349657012,3.7008145960365857,-1.7478756788300305,4.725758622332317,4.769674161585366,-4.681284834698933,5.731350038109756,3.168245641196646,1.4985109508547012,-13.599427617521366,0.9769104737854758,-12.928517496125668,-26.944684222027973,0.2448109282544379,29.00311498487435,34.03501362805883,35.47269895468296,1577399134.0,-27.703713484249977,-51.10930849418905,24.034063
12940,1577399134.8,-0.993768874452172,-0.8339997100085744,8.643535154463605,-1.4109439149437872,0.8849786868211695,10.44029590766721,-0.4541975734803727,-1.5637056598942451,6.782773303222656,0.3533712247522865,4.794609255907012,3.8228849085365857,-2.4802975538300305,-17.399485518292682,4.433980802210366,-2.728159834698933,4.327541444359756,1.8254722036966464,2.556283386752135,-11.554400908119655,1.2774983118733108,-1.629031725486053,-4.032537774725275,-4.032537774725275,29.146883517536764,33.699553718513194,35.66439033156618,1577399134.0,-27.703713484249977,-51.10930849418905,24.034063
12941,1577399134.81,-1.089536940858422,0.8934167877941588,10.767192027022196,-0.1276518251000374,-1.5571070065382044,9.3461457489758,-1.0671131984803728,-2.839815144757526,7.575254052734374,-3.415549673685214,3.0398485137195124,3.4414151819740857,-6.752758491330031,9.333912919207316,2.0536097084603657,-6.756480147198933,7.287746522484756,4.053255406821647,1.8511017628205124,-11.55440090811966,0.826616554741552,-13.750298279444912,-3.849240603146853,-1.8201160318047327,29.12292209542636,33.747476562734,35.616467487345375,1577399134.0,-27.703713484249977,-51.10930849418905,24.034063
12942,1577399134.82,-0.8405399682021719,-0.666405593797637,12.026542100264384,-1.2960222352562871,-0.3851452938917206,9.969835281446503,0.8207148105528298,1.3344754497248943,14.27423029785156,-8.649314322122713,-0.7290723847179879,3.3346036585365857,-2.419262397580031,0.6211443645198171,4.678121427210366,-5.749400069073932,-11.282199766577744,4.861971227134147,2.908874198717946,-11.96340625,0.9769104737854758,-12.825794898210765,-15.671908169955044,-2.0413582060967874,29.146883517536764,33.86728367328601,35.56854464312457,1577399134.0,-27.703713484249977,-51.10930849418905,24.034063
12943,1577399134.83,-0.6561864403701406,0.0997389374523619,10.922815134932351,0.4661101866187116,0.2265732302782008,10.454661117628149,-2.245060415277248,-2.0449401935856515,8.80347950439453,-0.6231912752477134,1.437675662157012,3.3346036585365857,-4.860668647580031,4.664723466082317,4.037252286585366,-9.472544600323932,-2.752536680640244,6.677767125571647,2.027397168803418,-13.803930288461538,0.526028716653711,-2.861702900464919,-3.299349088411588,-2.852579511834319,29.146883517536764,33.939167939617214,36.28738730643664,1577399134.0,-27.703713484249977,-51.10930849418905,24.034063
12944,1577399134.84,-0.8453283715224844,-0.494023074266387,9.328276829268292,0.1237393492163678,-0.2618439083936732,8.620702645948455,-0.475745388421779,0.5048845744807537,8.054094384765625,-2.9120096346227133,5.313408084032012,4.067025533536586,-4.341869819455031,1.0331316692073171,4.037252286585366,-14.111216475323932,-0.921481993140244,7.379671422446647,2.027397168803418,-13.803930288461538,0.526028716653711,1.6580914077909268,1.832971715784216,-33.8264839127219,28.955192140653548,33.891245095396414,35.52062179890376,1577399134.0,-27.703713484249977,-51.10930849418905,24.034063
12945,1577399134.85,-0.6657632470107657,0.1907186005382994,9.342642039229233,-1.7916219789086316,-0.3863423947217987,10.209255447462128,-1.1293624416444352,-0.3414657123844796,8.971073620605468,1.0552755216272869,5.588066287157012,4.372201314786586,-2.815990913205031,1.5671892863948167,5.059591153772866,-1.3548688190739329,-4.476779844702744,3.671785680259146,1.4985109508547012,-13.599427617521366,0.0751469595219524,-14.777524258593967,-4.032537774725275,-40.02126479289941,29.146883517536764,33.86728367328601,35.56854464312457,1577399134.0,-27.703713484249977,-51.10930849418905,24.034063
12946,1577399134.86,-0.6035140038467032,-0.470081057664825,10.569670390059308,0.6217332945288678,-0.7454726437452357,8.275937606885956,0.6591061984922825,4.189560929461224,4.089296435546875,-2.637351431497714,2.3837205840320124,3.4719327600990857,-2.1446041944550305,2.223317216082317,3.5794886147103657,3.253285477801067,5.273586366234756,2.618929234946646,0.6170339209401732,-11.75890357905983,0.3757347976097905,-16.421085825232456,-4.032537774725275,-35.89141087278106,29.12292209542636,33.891245095396414,35.52062179890376,1577399134.0,-27.703713484249977,-51.10930849418905,24.034063
12947,1577399134.87,-0.6944936669326407,-0.1923536650866995,6.943651975752667,0.6432811094702741,-0.7167422238233607,10.409171286085176,-2.666439907464748,-2.753623884991901,13.505691564941406,1.2688985685022869,7.968437380907012,3.8839200647865857,-1.2290768507050305,-3.636057783917683,4.189840177210366,2.276722977801067,24.25551995998476,2.313753453696646,1.8511017628205124,-12.781416933760685,0.6763226356976285,-15.599305041913214,-4.032537774725275,-39.431285661453934,29.146883517536764,34.08293647227963,35.52062179890376,1577399134.0,-27.703713484249977,-51.10930849418905,24.034063
12948,1577399134.88,-1.161362990663109,-0.1181334136218558,6.905344749190167,-0.7764804750023812,0.382196338188357,11.189681027296116,1.4491927463438448,3.1121701823909107,12.80658468017578,-1.2640604158727131,7.052910037157012,4.433236471036586,-2.1446041944550305,6.099049637957317,3.9762171303353657,-4.528696944073933,-1.6233862900152438,1.6728843130716462,1.8511017628205124,-12.781416933760685,0.6763226356976285,-16.421085825232456,-3.665943431568431,-39.431285661453934,28.955192140653548,33.891245095396414,35.76023602000779,1577399134.0,-27.703713484249977,-51.10930849418905,24.034063
12949,1577399134.89,-1.771884414002953,-0.2031275725574031,11.521365549971415,-0.8626717347680061,-0.1014323971632049,12.06835303657346,0.4974975864317356,0.0260442424495042,11.189301458740234,-1.9201883455602136,0.9493944121570124,3.4108976038490857,-0.8018307569550309,2.009694169207317,3.8083704506478657,1.4222307903010671,-4.034274961890244,6.494661656821647,2.203692574786324,-12.167908920940173,0.6763226356976347,-16.010195433572836,-3.849240603146853,-40.02126479289941,29.027076406984754,33.891245095396414,35.616467487345375,1577399134.0,-27.703713484249977,-51.10930849418905,24.034063
12950,1577399134.9,-0.993768874452172,-0.4796578643054495,9.991470689131573,-1.3319352601586312,-0.5180234860303919,11.13461438911252,0.1347760349180637,4.223079752703411,10.862492932128903,0.0787130216272865,1.834404177782012,3.9144376429115857,-2.7549557569550305,-8.763010908917684,4.311910489710366,-7.153208662823933,-14.196628477515244,6.036897984946647,2.027397168803418,-12.576914262820512,0.2254408785658761,-2.450812508805297,-2.5661604020979016,-1.0826421174978862,29.09896067331596,33.939167939617214,35.616467487345375,1577399134.0,-27.703713484249977,-51.10930849418905,24.034063
12951,1577399134.91,-2.030458193299828,0.0327012909679869,9.962740269209698,-1.7796509706078498,-0.3264873532178919,9.813015072706271,-0.4134961452577165,2.9158456462580986,8.79150849609375,-2.9425272127477133,2.0480272246570124,4.250131002286586,6.217212211794969,-24.35749333079268,5.227437833460366,-0.0731305378239328,-11.938327696265244,8.112093297446647,2.203692574786324,-11.96340625,0.3757347976097936,-2.861702900464919,-2.5661604020979016,-3.4425586432797965,29.19480636175757,33.939167939617214,35.80815886422859,1577399134.0,-27.703713484249977,-51.10930849418905,24.034063
12952,1577399134.92,-0.9003950097060781,-0.4628984526843558,9.040972630049543,-1.8011987855492562,-1.1046028927686733,9.55683549506955,-5.003180727777249,-3.428788753155964,9.485826977539062,0.1092305997522865,5.038749880907012,4.372201314786586,0.2357668992949695,-2.812083174542683,3.7625940834603657,-8.495982100323932,1.0926781631097562,4.480501500571647,2.203692574786324,-11.96340625,0.3757347976097936,-3.2725932921245406,-3.299349088411588,-36.48139000422654,29.146883517536764,33.891245095396414,35.52062179890376,1577399134.0,-27.703713484249977,-51.10930849418905,24.034063
